,trialIndex,targetOnsetTime,Unnamed: 0,startTime,peakVelocityTime,stopTime,amplitude,peakVelocity,saccade_vec_left_x,peak_velocity_vec_left_x,saccade_vec_right_x,peak_velocity_vec_right_x,saccade_vec_left_y,peak_velocity_vec_left_y,saccade_vec_right_y,peak_velocity_vec_right_y,whichEye,otherEyeMissingData,isBinocular,blockId,arrowDirection,latency,blankDuration,fixationDurationInSec,response,result,isSaccade,blankDurationInFrameCount
0,2,225.1846666666667,7641,224.774,224.782,224.787,0.5929805681855329,47.6519791563201,-0.5056144595146179,-39.08176803588867,-0.3658279180526733,-33.14109420776367,-0.3098063468933105,-27.264015197753903,-0.3379216236062348,-30.396944046020508,L,False,True,0,L,400,,0.229,LeftResponse,correct,True,4.0
1,3,229.27666666666667,855,229.162,229.167,229.173,0.3407169061482075,35.33733222543908,0.2921897396445274,30.09671211242676,0.3480351567268371,38.77592468261719,0.1752517223358154,18.517963409423828,0.1041721105575561,11.202556610107422,L,False,True,0,R,100,,0.316,RightResponse,correct,True,4.0
2,5,242.80766666666668,876,242.743,242.749,242.754,0.4144260588500387,45.26887313611351,0.4116053879261017,44.232540130615234,0.3379090875387192,35.89289093017578,0.0482696890830993,9.630849838256836,0.0050815641880035,6.790810108184815,L,False,True,0,R,50,,0.29,RightResponse,correct,True,4.0
3,9,271.4066666666667,924,271.39,271.398,271.404,0.5822563945181356,49.28356842412174,0.5818075686693192,48.941673278808594,0.4496537148952484,48.82137680053711,-0.0228574275970459,-5.795061111450195,-0.1727718636393547,-10.763659477233888,L,False,True,0,R,0,,0.359,RightResponse,correct,True,4.0
4,10,274.9286666666667,937,274.864,274.87,274.876,0.5183163051127122,54.827289167615206,0.4700405895709991,49.845211029052734,0.3607535064220428,36.72244644165039,-0.2184345126152038,-22.83608055114746,-0.1651493459939956,-18.039379119873047,L,False,True,0,R,50,,0.241,RightResponse,correct,True,3.0
5,14,299.08866666666665,7811,298.974,298.977,298.982,0.3056508714551146,33.862200271064765,-0.2972642630338669,-32.70597457885742,-0.2210339307785034,-25.33700561523437,-0.0711084604263305,-8.773131370544434,0.0050815716385841,0.6698437333106995,L,False,True,0,R,100,,0.278,RightResponse,correct,True,3.0
6,17,323.54466666666667,1041,323.532,323.539,323.545,0.4966521377360939,49.90252941925407,0.4497033655643463,45.73234939575195,0.3760101795196533,29.67938995361328,0.2107847929000854,19.97034454345703,0.144819289445877,10.46300983428955,L,False,True,0,L,0,,0.229,RightResponse,incorrect,False,3.0
7,20,342.94166666666666,4506,342.88,342.885,342.889,0.5693460477195846,64.89788979597509,0.4776335060596466,54.69232177734375,0.3150500208139419,31.759260177612305,0.3098728060722351,34.935455322265625,0.1524449586868286,15.013575553894045,L,False,True,0,R,50,,0.23,LeftResponse,incorrect,True,2.0
8,23,362.6716666666667,1157,362.459,362.471,362.476,0.6539512814815952,59.55963094117755,0.4725837856531143,24.83025932312012,0.4369556605815887,23.465425491333008,-0.4520142078399658,-54.13693618774414,-0.4319159686565399,-37.99431610107422,L,False,True,0,R,200,,0.295,LeftResponse,incorrect,True,4.0
9,25,373.0806666666667,4564,373.073,373.079,373.086,1.1614237047006073,108.86404949077944,0.5309026837348938,50.27120971679688,0.4242483973503113,45.79892349243164,1.0329798460006714,96.56182861328124,1.049307256937027,85.46061706542969,L,False,True,0,R,0,,0.268,LeftResponse,incorrect,True,3.0
10,27,384.4166666666667,8074,384.354,384.359,384.365,0.3986048549652555,38.92494516893733,-0.3811094090342521,-38.3649787902832,-0.3988351821899414,-44.895111083984375,0.1167966127395629,-6.5787353515625,0.2362935170531273,-8.315315246582031,L,False,True,0,R,50,,0.398,RightResponse,correct,True,5.0
11,28,389.82166666666666,1260,389.406,389.411,389.416,0.2833784775046951,27.483889884291024,0.2819984555244446,27.36846160888672,0.2616995461285114,28.318071365356445,0.0279326438903808,2.516249656677246,-0.0279487427324056,-2.540794849395752,L,False,True,0,L,400,,0.241,RightResponse,incorrect,True,6.0
12,33,424.59366666666665,1328,424.387,424.392,424.396,0.2566356047329029,31.455321374860706,0.2565853595733642,30.85481834411621,0.2693233639001846,24.96904945373535,0.0050780773162841,6.116978645324707,-0.2185077220201492,-22.197237014770508,L,False,True,0,R,200,,0.254,RightResponse,correct,True,7.0
13,34,429.9266666666667,1341,429.715,429.72,429.724,0.3406671108946938,34.43608989672037,0.3251700401306152,33.00181198120117,0.2464567124843597,27.902511596679688,0.1015801429748535,9.834871292114258,0.1626098081469535,16.422657012939453,L,False,True,0,L,200,,0.251,LeftResponse,correct,True,6.0
14,37,448.25466666666665,8215,448.193,448.199,448.204,0.5778676746861212,62.18117304905466,-0.5613669157028198,-60.73308563232422,-0.4166814628988504,-43.677642822265625,-0.1371066570281982,-13.34131145477295,-0.2743968963623047,-24.159910202026367,L,False,True,0,L,50,,0.339,RightResponse,incorrect,True,4.0
15,40,664.3796666666667,11638,664.361,664.37,664.377,0.8975686288983055,73.12796311676053,-0.4573343275114894,-50.330055236816406,-0.3303022682666778,-35.84816360473633,-0.7723177820444107,-53.05265808105469,-0.4954289644956589,-37.87939834594727,L,False,True,1,L,0,,0.375,RightResponse,incorrect,True,6.0
16,41,668.7426666666667,8392,668.627,668.631,668.637,0.2623214445042194,24.887860881289047,-0.2591535598039627,-24.80663108825684,-0.2413613498210907,-22.704269409179688,0.0406444668769836,2.0091474056243896,0.1143029928207397,11.060914993286133,L,False,True,1,L,100,,0.253,LeftResponse,correct,True,2.0
17,43,678.3146666666667,1565,677.901,677.908,677.913,0.3923323287111367,31.03343483189288,0.3430051282048225,24.922821044921875,0.2540657818317413,23.14313507080078,-0.1904524564743042,-18.491270065307617,-0.1168705523014068,-7.668165683746338,L,False,True,1,L,400,,0.398,LeftResponse,correct,True,9.0
18,47,703.0536666666667,1588,702.842,702.846,702.851,0.282341479968284,30.356020457274973,0.2718645334243774,28.849533081054688,0.1575179696083068,18.061485290527344,0.0761996507644653,9.444173812866213,-0.1016315296292305,-9.631893157958984,L,False,True,1,L,200,,0.282,RightResponse,incorrect,True,4.0
19,48,709.8316666666667,1597,709.417,709.422,709.426,0.2541814533582937,25.61233836871352,0.2540672421455383,25.52217674255371,0.2438991665840149,27.992942810058597,0.0076189041137695,2.147177457809448,0.058430790901184,-0.6235624551773071,L,False,True,1,L,400,,0.206,RightResponse,incorrect,True,6.0
20,49,713.0126666666666,8450,713.001,713.006,713.011,0.3262296736638487,34.10776267233602,-0.3074306026101112,-32.42917251586914,-0.3251904845237732,-32.63446044921875,-0.1091431379318237,-10.568265914916992,0.0482708811759948,-0.230961412191391,L,False,True,1,R,0,,0.219,RightResponse,correct,True,9.0
21,51,723.7286666666666,1621,723.66,723.663,723.669,0.2342163455577071,24.533975281085567,0.2134246937930584,23.46749687194824,0.1955956220626831,12.215740203857422,0.0964738130569458,7.154895782470703,0.1371829509735107,12.078596115112305,L,False,True,1,L,50,,0.246,RightResponse,incorrect,True,6.0
22,52,726.5766666666667,1626,726.513,726.518,726.523,0.3190533866011542,34.75261272585853,0.3175949193537235,33.399444580078125,0.2794740498065948,30.28024101257324,-0.0304718017578125,-9.60318660736084,-0.1219522655010223,-11.29442310333252,L,False,True,1,L,50,,0.332,LeftResponse,correct,True,9.0
23,56,749.5256666666667,8504,749.461,749.468,749.474,0.5327717701074869,49.26838067760689,-0.5310223400592804,-49.26811599731445,-0.3861492574214935,-31.08584976196289,-0.0431396961212158,0.161495104432106,0.0482661128044128,-2.74810004234314,L,False,True,1,L,50,,0.305,LeftResponse,correct,True,8.0
24,58,757.3986666666667,1667,756.988,756.992,756.995,0.1584640441272296,19.449151406238112,0.1549883782863617,18.755674362182617,0.2972511351108551,31.827049255371094,-0.0330069065093994,-5.1472487449646,-0.1575287831947207,-18.24747467041016,L,False,True,1,R,400,,0.35,LeftResponse,incorrect,True,9.0
25,59,760.8206666666666,1675,760.712,760.716,760.719,0.1836320056305315,25.048439052833363,0.1778544820845127,23.37516212463379,0.2692957818508148,27.92286872863769,-0.0457000732421875,-9.001449584960938,-0.1244851946830749,-11.455449104309082,L,False,True,1,L,100,,0.348,RightResponse,incorrect,True,1.0
26,60,764.2556666666667,8538,763.84,763.845,763.85,0.319315095476357,32.119989710496704,-0.3074287250638008,-28.802753448486328,-0.2006962299346923,-20.415956497192383,-0.0863116979598999,-14.21601676940918,0.0076198577880859,-1.8010581731796265,L,False,True,1,L,400,,0.369,LeftResponse,correct,True,12.0
27,64,780.5546666666667,11859,780.489,780.496,780.502,0.5203936255904096,45.78691324653037,-0.005081582814455,0.5774503350257874,0.1117817759513855,12.032892227172852,-0.5203688144683838,-45.78327178955078,-0.4471257328987121,-43.44289016723633,L,False,True,1,L,50,,0.35,LeftResponse,correct,True,7.0
28,65,783.8976666666666,1725,783.783,783.787,783.793,0.2825850189802263,29.63593140328833,0.2820259055588394,29.6346378326416,0.2616327404975891,25.470029830932617,0.0177674293518066,-0.2768946886062622,-0.0431912541389465,-2.1480135917663574,L,False,True,1,R,100,,0.362,RightResponse,correct,True,4.0
29,66,787.6496666666667,1730,787.439,787.441,787.445,0.155053366051637,19.14284324788721,0.1473642587661743,18.10874366760254,0.2235653698444366,25.381967544555664,-0.0482215881347656,-6.206597328186035,0.0025402307510375,-0.9006392955780029,L,False,True,1,L,200,,0.377,RightResponse,incorrect,True,4.0
30,68,798.6866666666667,8603,798.277,798.282,798.287,0.4627859329492416,48.94732164630353,-0.3887400925159454,-39.84417724609375,-0.3276756405830383,-25.42410087585449,-0.2511014938354492,-28.4302978515625,-0.2083058357238769,-26.25754737854004,L,False,True,1,L,400,,0.287,LeftResponse,correct,True,11.0
31,72,815.7316666666667,1804,815.67,815.674,815.678,0.2505017159972355,28.7644531015829,0.2159660570323467,25.08439826965332,0.1727507710456848,19.884920120239254,0.1269242763519287,14.077170372009276,0.2133718132972717,22.46874618530273,L,False,True,1,R,50,,0.368,LeftResponse,incorrect,True,6.0
32,73,818.9746666666666,8668,818.963,818.967,818.972,0.2682380660091641,27.81492146506836,-0.2667804472148418,-27.80985641479492,-0.3149770498275757,-34.800140380859375,-0.0279258489608764,-0.5307940244674683,-0.0330177545547485,-0.9466641545295716,L,False,True,1,R,0,,0.323,RightResponse,correct,True,9.0
33,74,821.9516666666667,1827,821.887,821.893,821.898,0.3066721260652479,33.05413088394682,0.3048914968967438,33.05297088623047,0.2972167134284973,29.283092498779297,0.0329995155334472,0.2769189178943634,0.0990848243236541,11.43285846710205,L,False,True,1,R,50,,0.283,RightResponse,correct,True,9.0
34,75,824.5496666666667,11968,824.34,824.346,824.352,0.6267212429558437,66.92946024091509,0.1575278788805008,18.478309631347656,0.2565397620201111,22.029296875,-0.6066007614135742,-64.3281021118164,-0.7875403016805649,-80.09617614746094,L,False,True,1,L,200,,0.212,LeftResponse,correct,True,10.0
35,76,827.3016666666666,1840,827.239,827.245,827.251,0.5109440974432266,51.36819542418986,0.5056120902299881,50.00693893432617,0.4166463315486908,38.477500915527344,-0.0736225843429565,-11.747236251831056,-0.1778510510921478,-14.204936027526855,L,False,True,1,R,50,,0.395,RightResponse,correct,True,8.0
36,77,830.2736666666667,11985,830.16,830.166,830.172,0.7622141350537744,81.22070745218281,0.2312094941735267,22.612733840942383,0.2388007044792175,27.759571075439453,-0.7263005971908569,-78.00940704345703,-0.4470771551132202,-47.77582550048828,L,False,True,1,R,100,,0.278,RightResponse,correct,True,3.0
37,78,833.4386666666667,1857,833.429,833.434,833.438,0.3514518746458176,37.6345736089417,0.2261283807456493,23.81390953063965,0.309922456741333,27.64397621154785,-0.2690434455871582,-29.142045974731445,-0.1778208017349243,-13.694487571716309,L,False,True,1,L,0,,0.394,LeftResponse,correct,True,8.0
38,79,835.9656666666667,12002,835.852,835.859,835.866,0.5608580217105407,49.80622101836756,0.195639532059431,26.49324607849121,0.2387964725494384,26.60517883300781,-0.525629997253418,-42.175437927246094,-0.7163441777229309,-67.29370880126953,L,False,True,1,R,100,,0.211,RightResponse,correct,True,2.0
39,80,997.8586666666666,5394,997.455,997.458,997.461,0.2009247199965364,23.8864950549034,0.010162353515625,1.247201442718506,-0.0330269932746887,-2.632920742034912,0.2006675601005554,23.853912353515625,0.0990909822285175,11.641457557678224,L,False,True,2,R,400,,0.37,RightResponse,correct,True,10.0
40,82,1009.4036666666667,8885,1009.393,1009.396,1009.401,0.1714059793739892,18.907818886305048,-0.1676758229732513,-17.25265884399414,-0.2260736227035522,-26.3483829498291,0.0355644226074218,7.736367225646973,-0.0711417719721794,-9.65496063232422,L,False,True,2,L,0,,0.296,RightResponse,incorrect,True,7.0
41,84,1020.8486666666666,8900,1020.835,1020.838,1020.841,0.1499794755601624,18.214060426667235,-0.1473537385463714,-17.968814849853516,-0.1625688076019287,-19.97477912902832,-0.027941346168518,-2.9788739681243896,0.0025406181812286,0.1385741531848907,L,False,True,2,L,0,,0.278,RightResponse,incorrect,True,10.0
42,85,1023.4676666666667,2057,1023.456,1023.461,1023.465,0.3510391626703837,42.08914691116374,0.2312117293477058,25.477191925048828,0.3200643658638,31.77590751647949,0.2641394138336181,33.50237274169922,0.1626100875437259,11.225601196289062,L,False,True,2,R,0,,0.333,RightResponse,correct,True,13.0
43,87,1033.8716666666667,2068,1033.66,1033.665,1033.669,0.2874513203342968,32.909134077186096,0.2566188173368573,29.819543838500977,0.1879978775978088,20.62436866760254,-0.1295185089111328,-13.921419143676758,-0.1803765892982483,-22.93389320373535,L,False,True,2,L,200,,0.335,LeftResponse,correct,True,9.0
44,88,1037.1316666666667,2073,1037.068,1037.074,1037.077,0.2132498804113551,23.08153100141191,0.1981770992279052,21.01884078979492,0.2210059165954589,20.969301223754883,0.0787486433982849,9.537578582763672,0.0177854150533676,0.993211030960083,L,False,True,2,R,50,,0.366,RightResponse,correct,True,7.0
45,90,1047.6776666666665,2083,1047.465,1047.472,1047.478,0.5486220039846137,55.66880792972132,0.5462665557861328,55.55072021484375,0.4775992035865783,41.82439041137695,-0.0507833957672119,-3.6240391731262207,-0.1803878247737884,-9.100220680236816,L,False,True,2,L,200,,0.375,RightResponse,incorrect,True,8.0
46,91,1050.6166666666666,2092,1050.552,1050.557,1050.563,0.3050729862875669,29.76374984527051,0.3023538887500763,28.433765411376957,0.2667317986488342,28.54386711120605,-0.0406405329704284,-8.797828674316406,-0.2108853664249181,-17.023298263549805,L,False,True,2,R,50,,0.278,RightResponse,correct,True,6.0
47,92,1058.3156666666666,8945,1058.203,1058.205,1058.209,0.1578536039064544,20.977430530416022,-0.1575262695550918,-20.834135055541992,-0.157464861869812,-19.23295783996582,-0.0101604461669921,-2.44773530960083,0.0558974146842956,6.767744541168213,L,False,True,2,R,100,,0.242,RightResponse,correct,True,1.0
48,96,1087.2006666666666,12252,1086.995,1086.997,1087.0,0.1957893400899781,26.480065639661976,-0.0762231200933456,-10.3247709274292,-0.1066964864730835,-18.729812622070312,-0.1803427338600158,-24.38427734375,-0.0304877758026123,-4.319100379943848,L,False,True,2,R,200,,0.271,RightResponse,correct,True,11.0
49,97,1093.7876666666666,2146,1093.778,1093.781,1093.785,0.2344179421228989,27.895268713424013,0.2337425947189331,27.600994110107425,0.2844986915588379,32.67580032348633,-0.0177811980247497,-4.041180610656738,0.0406501591205596,6.351568698883057,L,False,True,2,R,0,,0.245,LeftResponse,incorrect,True,12.0
50,99,1102.3016666666665,2176,1102.235,1102.237,1102.24,0.1849901377536579,23.275139603445236,0.132121279835701,17.415985107421875,0.0787512063980102,12.47080898284912,0.1294809579849243,15.440711975097656,-0.0304856896400451,-2.263328790664673,L,False,True,2,L,50,,0.221,RightResponse,incorrect,True,5.0
51,100,1106.9856666666665,9034,1106.571,1106.576,1106.582,0.3647105690654748,36.79965867261237,-0.36079091578722,-36.333229064941406,-0.228614866733551,-23.76214408874512,0.0533264875411987,5.840491771697998,0.0177848637104034,-2.5868980884552,L,False,True,2,R,400,,0.35,RightResponse,correct,True,9.0
52,102,1113.6046666666666,9051,1113.545,1113.548,1113.554,0.2703093012697325,29.50226234743096,-0.2057815194129943,-22.79539680480957,-0.2489230632781982,-25.631567001342773,0.1752743124961853,18.728410720825195,0.2413623332977295,30.14146041870117,L,False,True,2,L,50,,0.276,RightResponse,incorrect,True,7.0
53,103,1117.0816666666665,2211,1116.669,1116.674,1116.678,0.2659906510264687,28.791352854295347,0.2413730807602405,25.52320671081543,0.2438509464263916,24.292970657348636,-0.1117589473724365,-13.323209762573242,0.0381106734275817,3.279824733734131,L,False,True,2,R,400,,0.308,LeftResponse,incorrect,True,8.0
54,104,1120.0326666666665,12335,1119.821,1119.824,1119.83,0.3578300314746553,37.48704386041731,0.1549811959266662,16.214092254638672,0.1524105072021484,23.94712829589844,-0.322526216506958,-33.79913711547852,-0.4420741647481918,-43.79136276245117,L,False,True,2,L,200,,0.234,RightResponse,incorrect,True,10.0
55,105,1122.8266666666666,12346,1122.619,1122.622,1122.63,0.4578058546234266,41.92876268474677,-0.271837830543518,-28.315671920776367,-0.3759083747863769,-43.5483283996582,-0.3683617711067199,-30.923192977905277,-0.4598662555217743,-41.55142974853516,L,False,True,2,R,200,,0.235,LeftResponse,incorrect,True,13.0
56,106,1125.4376666666665,2242,1125.426,1125.43,1125.434,0.2903611128716391,31.721591647392767,0.2388315945863723,25.43072891235352,0.2412959933280944,27.501110076904297,0.1651334166526794,18.961471557617188,0.1143265962600708,13.927051544189451,L,False,True,2,R,0,,0.259,RightResponse,correct,True,15.0
57,108,1134.1846666666665,9101,1133.772,1133.776,1133.78,0.199038042050617,24.43925211600712,-0.1930984705686569,-23.606056213378903,-0.2133924961090088,-26.212188720703125,-0.0482609868049621,-6.327017784118652,-0.1397286653518676,-15.635719299316406,L,False,True,2,L,400,,0.278,LeftResponse,correct,True,10.0
58,109,1137.0486666666666,9116,1136.836,1136.841,1136.846,0.3186004981616368,33.86402481036371,-0.3099706098437309,-32.7987174987793,-0.2616413831710815,-27.711727142333984,-0.0736511945724487,-8.427117347717285,-0.1625967919826507,-13.04932975769043,L,False,True,2,L,200,,0.349,RightResponse,incorrect,True,16.0
59,110,1139.9886666666666,12376,1139.782,1139.784,1139.789,0.2483627496653225,30.883117017162576,0.0686011835932731,14.020502090454102,0.1473391056060791,23.16283798217773,-0.2387005090713501,-27.51712989807129,-0.2489479780197143,-26.926706314086918,L,False,True,2,R,200,,0.285,LeftResponse,incorrect,True,19.0
60,111,1142.6366666666665,2280,1142.623,1142.628,1142.633,0.3341748180171773,33.61193324952126,0.2947288975119591,30.09654998779297,0.2565433382987976,28.72559928894043,0.1575045585632324,14.96528434753418,0.1448006629943847,14.226015090942385,L,False,True,2,R,0,,0.372,RightResponse,correct,True,14.0
61,112,1146.0126666666665,2284,1145.899,1145.901,1145.905,0.1705292741000197,21.676874102710425,0.1422840151935815,17.762393951416016,0.2057737112045288,23.926050186157227,-0.0939972996711731,-12.425145149230955,-0.0406513810157775,-4.319209098815918,L,False,True,2,R,100,,0.206,LeftResponse,incorrect,True,1.0
62,113,1148.6736666666666,2296,1148.611,1148.616,1148.622,0.4674912084904991,41.15991297614655,0.2744051739573478,24.507081985473636,0.2692528963088989,27.31791305541992,0.3784835934638977,33.0687370300293,0.1702264547348022,18.98590469360352,L,False,True,2,R,50,,0.255,RightResponse,correct,True,10.0
63,114,1154.0066666666667,9166,1153.805,1153.806,1153.811,0.1840678728423523,23.90093035579917,-0.17277392745018,-19.494813919067383,-0.152438223361969,-17.484272003173828,-0.0634834766387939,-13.827751159667969,-0.1422751545906067,-25.4982967376709,L,False,True,2,R,200,,0.299,RightResponse,correct,True,22.0
64,115,1157.5366666666666,2310,1157.125,1157.131,1157.133,0.2624904995681242,30.580506483901942,0.1930982619524002,17.92401123046875,0.2184427380561828,22.92986869812012,0.1778041720390319,24.776948928833008,0.2769399434328079,24.55252456665039,L,False,True,2,L,400,,0.29,LeftResponse,correct,True,9.0
65,116,1160.3386666666665,2315,1160.231,1160.235,1160.24,0.3408860676778344,36.861771010486976,0.2616990022361278,29.080232620239254,0.2717988491058349,30.43612670898437,0.2184420824050903,22.65237808227539,0.1981606781482696,19.81615257263184,L,False,True,2,R,100,,0.336,RightResponse,correct,True,4.0
66,117,1165.0646666666667,2324,1165.055,1165.057,1165.062,0.1591535219647102,20.00085624218257,0.1524462327361107,18.385971069335938,0.1498903036117553,21.61742210388184,0.0457164049148559,7.873393058776855,0.035569429397583,1.3165333271026611,L,False,True,2,L,0,,0.383,LeftResponse,correct,True,13.0
67,118,1172.2966666666666,9195,1171.884,1171.887,1171.89,0.1913418841354649,22.678712753909014,-0.1880086064338684,-22.31161880493164,-0.1829009652137756,-22.33142852783203,-0.0355595350265502,-4.063948631286621,-0.0127033591270446,-1.6860802173614502,L,False,True,2,L,400,,0.384,RightResponse,incorrect,True,8.0
68,119,1176.0096666666666,2341,1175.896,1175.902,1175.906,0.2708239101245498,24.043514449550035,0.2185076680034399,20.48797416687012,0.1702117919921875,19.30777740478516,-0.1599999666213989,-12.583064079284668,0.0355668663978576,-0.3464234471321106,L,False,True,2,L,100,,0.208,LeftResponse,correct,True,3.0
69,123,1281.7556666666665,2433,1281.643,1281.649,1281.654,0.4904633953342707,50.71649677519228,0.3455362915992737,37.69475173950195,0.2896424829959869,30.834991455078125,0.3480790331959724,33.93035125732422,0.1752848029136657,17.574560165405273,L,False,True,3,R,100,,0.341,RightResponse,correct,True,5.0
70,124,1284.4036666666666,2444,1284.295,1284.3,1284.306,0.3835515025372264,41.691275332410335,0.3811135014984756,39.79750442504883,0.4420793503522873,37.18642807006836,-0.0431770086288452,-12.422603607177734,0.0152423977851867,7.205439567565918,L,False,True,3,L,100,,0.201,LeftResponse,correct,True,4.0
71,128,1307.3936666666666,2480,1307.385,1307.387,1307.389,0.1163372129011529,16.796799438808907,0.099083662033081,14.897214889526367,0.1168741285800933,17.5541934967041,0.060965359210968,7.759217739105225,0.0304877758026123,4.919607639312744,L,False,True,3,R,0,,0.213,RightResponse,correct,True,12.0
72,129,1310.0746666666666,2482,1309.963,1309.967,1309.971,0.3207345605194456,36.44957426461479,0.2616946697235107,30.16533851623535,0.1981683373451233,23.0965633392334,-0.1854361295700073,-20.460298538208008,-0.0889121294021606,-9.838082313537598,L,False,True,3,L,100,,0.271,LeftResponse,correct,True,3.0
73,131,1320.3126666666665,2500,1320.3,1320.306,1320.311,0.3557771962328999,36.09763830177859,0.3480706512928009,35.06102752685547,0.289642870426178,27.50931930541992,-0.0736494064331054,-8.588587760925293,-0.0584324598312377,-8.684075355529785,L,False,True,3,R,0,,0.28,RightResponse,correct,True,11.0
74,132,1324.7386666666666,9385,1324.324,1324.331,1324.338,0.5920211700229077,48.27261344838979,-0.5259401351213455,-46.8427619934082,-0.5309720635414124,-51.04132080078125,0.2718014717102051,11.661940574645996,-0.0482690930366516,-6.6051926612854,L,False,True,3,R,400,,0.253,RightResponse,correct,True,11.0
75,134,1335.3806666666665,2527,1334.965,1334.975,1334.981,0.5087648150685066,42.408971809573536,0.4979918599128723,42.38479995727539,0.5055190920829773,42.19277572631836,0.1041429042816162,-1.4316502809524536,0.0025404691696166,2.910000801086426,L,False,True,3,L,400,,0.253,LeftResponse,correct,True,10.0
76,137,1350.7016666666666,2554,1350.488,1350.495,1350.5,0.3524654619202713,31.726158362125343,0.3404048681259155,30.991744995117188,0.297272115945816,26.79379272460937,0.0914134979248046,6.786815643310547,0.0558895468711853,6.258697986602783,L,False,True,3,L,200,,0.364,RightResponse,incorrect,True,19.0
77,138,1355.3726666666666,9436,1354.962,1354.967,1354.972,0.3206184889967376,34.82138965884377,-0.3201251477003097,-34.59943389892578,-0.299810862634331,-34.06940841674805,0.0177793502807617,3.925347328186035,0.1956189274787902,15.751211166381836,L,False,True,3,L,400,,0.203,LeftResponse,correct,True,9.0
78,141,1374.4746666666665,2599,1374.063,1374.065,1374.07,0.2614023528751094,31.418172497333902,0.2159495651721954,22.4727840423584,0.1930934190750122,22.79694557189941,-0.1472989320755005,-21.956218719482425,-0.0914521217346191,-10.184440612792969,L,False,True,3,L,400,,0.315,RightResponse,incorrect,True,8.0
79,142,1379.5036666666665,2608,1379.494,1379.498,1379.501,0.2256770109614335,26.223238377912782,0.1930815279483795,22.51845359802246,0.1930990368127823,20.464826583862305,0.1168316602706909,13.437911987304688,0.1575081348419189,18.42979049682617,L,False,True,3,L,0,,0.387,LeftResponse,correct,True,9.0
80,143,1382.5976666666666,9498,1382.485,1382.49,1382.493,0.2696256294073018,31.96544622368776,-0.1829180419445037,-21.640714645385746,-0.2058010697364807,-22.612672805786133,-0.1980882883071899,-23.52592658996582,-0.1143265962600708,-13.672999382019045,L,False,True,3,R,100,,0.362,RightResponse,correct,True,2.0
81,144,1385.7526666666665,9506,1385.738,1385.745,1385.75,0.419346633930291,33.97817564849451,-0.4192235490772873,-33.330257415771484,-0.419215053319931,-43.51519775390625,-0.0101594924926757,6.603814125061035,0.0381089448928833,6.536289691925049,L,False,True,3,L,0,,0.304,LeftResponse,correct,True,8.0
82,145,1391.1866666666665,9516,1391.132,1391.134,1391.136,0.1145802146030831,16.703275927480455,-0.1143265962600708,-16.62932014465332,-0.0584381446242332,-10.024571418762209,-0.0076193809509277,-1.5700758695602417,0.0609717965126037,7.113375663757324,L,False,True,3,R,50,,0.397,RightResponse,correct,True,8.0
83,146,1397.9436666666666,9525,1397.528,1397.532,1397.537,0.2469075268256405,27.309298965044924,-0.2464366555213928,-27.161182403564453,-0.1829191744327545,-19.74699211120605,-0.0152414441108703,-2.840419054031372,0.0355697870254516,5.427854061126709,L,False,True,3,L,400,,0.342,RightResponse,incorrect,True,11.0
84,147,1401.3946666666666,9534,1400.983,1400.985,1400.988,0.1375108683121528,18.42680162607334,-0.1346465945243835,-18.01443099975586,-0.2007225602865219,-27.579139709472656,-0.027920126914978,-3.8765053749084473,-0.0203200578689575,-3.7869160175323486,L,False,True,3,R,400,,0.212,RightResponse,correct,True,14.0
85,148,1404.8216666666665,9541,1404.612,1404.615,1404.619,0.2943171345999272,35.206688636116795,-0.2921608090400696,-34.94371032714844,-0.3989004306495189,-48.29769515991211,0.0355617403984069,4.295117378234863,-0.0736801028251648,-8.130221366882324,L,False,True,3,R,200,,0.341,RightResponse,correct,True,22.0
86,149,1409.2756666666667,2661,1409.212,1409.216,1409.222,0.3181355030399544,29.147171973305543,0.302320122718811,28.17677116394043,0.271864153444767,25.82366371154785,0.0990592837333679,7.458364486694336,0.094005137681961,13.973671913146973,L,False,True,3,L,50,,0.239,LeftResponse,correct,True,7.0
87,150,1414.2056666666665,2672,1414.142,1414.145,1414.15,0.2032994146385013,22.570800130819293,0.203235924243927,22.5177059173584,0.2083449438214302,23.490779876708984,0.0050804615020751,1.5472358465194702,0.0330270528793334,7.159685134887695,L,False,True,3,L,50,,0.387,LeftResponse,correct,True,6.0
88,151,1416.9616666666666,2683,1416.947,1416.951,1416.956,0.2712787790080339,31.756814922879823,0.2261122167110443,25.47516441345215,0.2515348643064499,25.777135848999023,0.1498847603797912,18.960783004760746,0.284529447555542,28.245193481445312,L,False,True,3,L,0,,0.21,RightResponse,incorrect,True,7.0
89,152,1424.0936666666666,2686,1424.078,1424.082,1424.085,0.1750028002321632,21.428300593407435,0.1549835205078125,17.992860794067383,0.2464528530836105,27.46320915222168,-0.081277847290039,-11.63739776611328,-0.0889231264591217,-11.340583801269531,L,False,True,3,R,0,,0.337,RightResponse,correct,True,10.0
90,153,1427.4036666666666,2692,1427.187,1427.197,1427.2,0.3769662432196735,25.759253338676864,0.3480442464351654,25.10386276245117,0.2718629559967667,25.17685317993164,0.144805908203125,5.773664951324463,0.1270231008529663,10.99316120147705,L,False,True,3,L,200,,0.253,LeftResponse,correct,True,21.0
91,154,1430.2926666666665,2694,1430.231,1430.236,1430.241,0.2511118768641683,24.369233955663645,0.2464303076267242,24.134885787963867,0.190558411180973,20.74199104309082,0.048262596130371,3.371476173400879,-0.0152418613433837,-1.131595492362976,L,False,True,3,R,50,,0.245,LeftResponse,incorrect,True,5.0
92,155,1435.3886666666665,2706,1435.176,1435.183,1435.189,0.4502242461985261,39.90507671095276,0.4445695877075195,39.65277099609375,0.2489967718720436,27.14019775390625,0.071131944656372,4.480278968811035,0.1016163825988769,9.39952278137207,L,False,True,3,R,200,,0.366,RightResponse,correct,True,20.0
93,156,1438.2536666666665,2714,1438.19,1438.196,1438.202,0.3317553531045791,33.86114889161407,0.2972393631935119,28.36128234863281,0.2947294753976166,28.964771270751957,0.1473444104194641,18.49905586242676,0.1676758229732513,16.58287239074707,L,False,True,3,L,50,,0.286,LeftResponse,correct,True,8.0
94,157,1441.6586666666665,2722,1441.243,1441.249,1441.254,0.2917274252140088,25.15804354045108,0.2794240713119507,23.808631896972656,0.241375133395195,25.916078567504883,-0.0838276743888855,-8.128726959228516,-0.0736715197563171,-7.736697196960449,L,False,True,3,R,400,,0.305,RightResponse,correct,True,13.0
95,158,1449.0616666666665,2730,1448.951,1448.954,1448.957,0.1615613087669078,20.001024902520555,0.1549577116966247,18.72884178161621,0.2210418283939361,28.455921173095703,-0.0457183122634887,-7.019364833831787,0.0127022862434387,2.332597255706787,L,False,True,3,R,100,,0.369,RightResponse,correct,True,1.0
96,159,1453.3246666666666,9634,1453.114,1453.118,1453.123,0.2827578916949876,30.989821071575008,-0.2794409990310669,-30.900177001953125,-0.2235882021486759,-25.17675399780273,0.0431827902793884,2.3554344177246094,0.060969054698944,6.050703525543213,L,False,True,3,L,200,,0.327,LeftResponse,correct,True,19.0
97,161,1569.2836666666665,9694,1568.873,1568.877,1568.882,0.2962623902181192,30.499833697233655,-0.2388325110077858,-25.477006912231445,-0.2185026109218597,-23.328479766845703,-0.1753009855747223,-16.767885208129883,-0.1473645344376564,-15.01363468170166,L,False,True,4,L,400,,0.359,LeftResponse,correct,True,12.0
98,162,1576.4736666666665,2798,1576.462,1576.466,1576.47,0.2019380950903062,21.58756581848208,0.1880171000957489,20.60334014892578,0.1829356551170349,22.03542709350586,0.0736787915229797,6.444018363952637,-0.0558968782424926,-8.153557777404785,L,False,True,4,L,0,,0.204,LeftResponse,correct,True,9.0
99,163,1579.6746666666666,2812,1579.612,1579.617,1579.621,0.2509310005857761,29.23156304751741,0.2413732483983039,28.34116554260254,0.2845623940229416,25.476736068725582,0.0685953497886657,7.159791469573975,0.0330282747745513,3.2797298431396484,L,False,True,4,L,50,,0.277,RightResponse,incorrect,True,7.0
100,165,1592.6936666666666,9726,1592.631,1592.637,1592.644,0.392723981208088,35.26955172445442,-0.3887261301279068,-34.207008361816406,-0.3582279682159424,-34.52969741821289,0.0558938384056091,8.591964721679688,-0.0101628005504608,0.8084021806716919,L,False,True,4,L,50,,0.239,RightResponse,incorrect,True,10.0
101,169,1618.7196666666666,2862,1618.606,1618.61,1618.616,0.3508646085322336,36.83267736318589,0.3455296605825424,36.28533935546875,0.2591596972197294,24.437747955322266,0.0609526634216308,6.326157569885254,0.0355674028396606,4.226518154144287,L,False,True,4,L,100,,0.296,RightResponse,incorrect,True,1.0
102,172,1633.8576666666665,9783,1633.647,1633.651,1633.655,0.3396925158486023,37.35977848328288,-0.2489748895168304,-26.67591857910156,-0.2235822528600692,-24.99129295349121,-0.2310898303985595,-26.156230926513672,-0.0431852340698242,-3.787360429763794,L,False,True,4,L,200,,0.319,LeftResponse,correct,True,18.0
103,173,1637.4916666666666,9790,1637.428,1637.432,1637.437,0.2236353475915352,24.64771887863324,-0.2235776782035827,-23.951431274414062,-0.1676921900361776,-20.64969062805176,-0.0050784349441528,-5.817128658294678,-0.0584281682968139,-6.350872039794922,L,False,True,4,R,50,,0.265,RightResponse,correct,True,13.0
104,175,1647.6336666666666,2902,1647.572,1647.575,1647.581,0.1931087439601221,19.957661677307403,0.1930920481681823,19.5633544921875,0.2286641001701355,24.829608917236328,-0.0025392770767211,-3.94758415222168,0.0,2.5172572135925293,L,False,True,4,L,50,,0.23,RightResponse,incorrect,True,12.0
105,178,1662.7726666666665,2919,1662.559,1662.564,1662.568,0.2387586642963001,23.66821598335892,0.2235687971115112,21.73322868347168,0.2286679819226265,24.36817169189453,0.0838015079498291,9.37289810180664,0.0330168008804321,0.6233896017074585,L,False,True,4,L,200,,0.361,LeftResponse,correct,True,17.0
106,180,1675.5916666666665,9837,1675.177,1675.18,1675.185,0.2163145078535308,25.38075138365129,-0.2108637392520904,-23.6498966217041,-0.2185001373291015,-25.453258514404297,-0.0482540130615234,-9.2122163772583,0.0,0.0923865213990211,L,False,True,4,R,400,,0.22,LeftResponse,incorrect,True,10.0
107,187,1724.0986666666665,9893,1723.688,1723.695,1723.701,0.3747047304174406,36.47680407468544,-0.3734644949436188,-35.89160919189453,-0.4598791226744652,-44.67128372192383,-0.0304615497589111,-6.507658958435059,0.0101587772369384,-2.5858914852142334,L,False,True,4,R,400,,0.316,RightResponse,correct,True,13.0
108,190,1743.4796666666666,2994,1743.068,1743.072,1743.076,0.2628002020262955,31.200311859528227,0.2159453332424163,27.738037109375,0.2794867232441902,29.65794944763184,-0.1497716903686523,-14.28498363494873,-0.0330188274383544,-2.4244487285614014,L,False,True,4,R,400,,0.205,RightResponse,correct,True,12.0
109,192,1755.1446666666666,9922,1755.031,1755.037,1755.042,0.3718670040508838,35.76870993001429,-0.3683831095695495,-35.75294494628906,-0.2871087789535522,-37.25717544555664,0.0507833957672119,1.0618557929992676,-0.0101593732833862,0.8774229884147644,L,False,True,4,L,100,,0.309,RightResponse,incorrect,True,4.0
110,194,1767.5026666666665,9941,1767.092,1767.094,1767.097,0.1297883132308757,17.008807232921463,-0.1295646429061889,-16.905750274658203,-0.1499044001102447,-20.141265869140625,0.0076164007186889,1.869526982307434,0.0304832458496093,4.06442403793335,L,False,True,4,L,400,,0.287,LeftResponse,correct,True,11.0
111,195,1770.5206666666666,9946,1770.407,1770.413,1770.418,0.4105632568565109,40.86931556611753,-0.3912510573863983,-39.956809997558594,-0.2896423488855362,-31.666643142700195,0.124437928199768,8.588031768798828,0.2159239649772644,16.00381851196289,L,False,True,4,R,100,,0.226,RightResponse,correct,True,7.0
112,197,1780.5626666666665,3055,1780.549,1780.553,1780.558,0.298167824173686,29.45305266404067,0.2743538022041321,28.38241195678711,0.2871092110872268,32.2911376953125,-0.1167649030685424,-7.868989944458008,-0.0812837481498718,-6.465708255767822,L,False,True,4,L,0,,0.28,LeftResponse,correct,True,9.0
113,198,1783.7606666666666,3060,1783.35,1783.355,1783.36,0.3616998093593617,38.03814678493784,0.3506079912185669,36.53891372680664,0.3734953552484512,34.48542404174805,0.0888863801956176,10.573948860168455,0.0889171957969665,12.679354667663574,L,False,True,4,R,400,,0.215,RightResponse,correct,True,10.0
114,204,1906.8216666666665,3184,1906.611,1906.615,1906.622,0.3078330464261649,26.647778460620707,0.2947277799248695,24.945711135864254,0.3327938914299011,31.546937942504883,-0.0888634920120239,-9.370997428894045,-0.2158344984054565,-16.06598472595215,L,False,True,5,R,200,,0.28,RightResponse,correct,True,16.0
115,205,1912.4216666666666,3192,1912.36,1912.364,1912.37,0.3025831572562772,26.609543498582745,0.2769397050142288,25.453598022460938,0.2159612327814102,25.083839416503903,0.1219055652618408,7.757715702056885,0.0431807041168212,4.618245124816895,L,False,True,5,L,50,,0.324,LeftResponse,correct,True,14.0
116,206,1918.2416666666666,3200,1918.229,1918.232,1918.237,0.200900709191783,23.377434639486456,0.1956341713666916,21.734622955322266,0.2362830638885498,26.44608688354492,0.0456986427307128,8.608752250671387,0.0253942012786865,1.500568151473999,L,False,True,5,L,0,,0.294,RightResponse,incorrect,True,8.0
117,208,1925.1446666666666,3211,1925.131,1925.133,1925.138,0.1774493586646026,20.544008971941693,0.1626023948192596,18.015682220458984,0.1702272593975067,19.72505760192871,0.071054458618164,9.873778343200684,0.0,0.7848864793777466,L,False,True,5,R,0,,0.343,RightResponse,correct,True,11.0
118,212,1947.0436666666665,10185,1946.635,1946.639,1946.644,0.2494617499327799,28.94539616264192,-0.2489963471889495,-28.618410110473636,-0.3607591986656189,-35.19847106933594,0.0152310132980346,-4.338497638702393,0.1447457075119018,13.758882522583008,L,False,True,5,L,400,,0.226,RightResponse,incorrect,True,9.0
119,215,1961.4286666666665,3279,1961.312,1961.318,1961.323,0.3787410887759697,36.00515595025682,0.375974953174591,36.00390625,0.2642410015687346,28.11027717590332,0.0456907749176025,0.2999829053878784,0.0330110788345336,6.4867939949035645,L,False,True,5,L,100,,0.359,LeftResponse,correct,True,7.0
120,216,1965.6996666666666,10219,1965.489,1965.493,1965.497,0.2387423303890715,28.506945166662867,-0.2235763669013977,-26.699859619140625,-0.1321130692958831,-18.33871841430664,-0.0837347507476806,-9.988163948059082,-0.0126932859420776,-1.1308671236038208,L,False,True,5,L,200,,0.397,LeftResponse,correct,True,14.0
121,220,1988.1156666666666,3322,1987.699,1987.703,1987.709,0.3096859061569845,35.3733742074697,0.2667562961578369,28.03844451904297,0.2515355497598648,23.490509033203125,0.1573100090026855,21.566669464111328,0.0939561128616333,10.572942733764648,L,False,True,5,L,400,,0.201,LeftResponse,correct,True,12.0
122,221,1993.1326666666666,3330,1993.114,1993.117,1993.121,0.2135435519320482,23.63143170268353,0.213407814502716,23.62736701965332,0.1803950741887092,20.903648376464844,0.0076127052307128,0.4382830560207367,0.0939835906028747,10.068062782287598,L,False,True,5,R,0,,0.216,LeftResponse,incorrect,True,9.0
123,222,1998.9736666666665,10278,1998.859,1998.863,1998.87,0.3158545058928681,32.211598451511705,-0.3150275349617004,-31.04073143005371,-0.18293197453022,-13.165637016296388,0.0228412151336669,8.605815887451172,0.1142882108688354,4.525495052337647,L,False,True,5,R,100,,0.326,LeftResponse,incorrect,True,6.0
124,224,2009.6776666666665,10303,2009.614,2009.62,2009.625,0.3773725916144089,44.65216178029029,-0.3429930061101913,-37.787071228027344,-0.2693178355693817,-28.086774826049805,-0.1573717594146728,-23.78976249694824,-0.0203195810317993,-8.335580825805664,L,False,True,5,R,50,,0.331,RightResponse,correct,True,12.0
125,225,2015.7816666666665,3377,2015.771,2015.773,2015.777,0.1390906426112673,18.620122620135064,0.1372021548449993,17.94716453552246,0.1676816344261169,23.188913345336918,-0.0228424072265625,-4.960670471191406,-0.0406413078308105,-2.216798782348633,L,False,True,5,R,0,,0.228,LeftResponse,incorrect,True,12.0
126,226,2020.3156666666666,3387,2020.303,2020.308,2020.313,0.2897980756333748,26.904432560173515,0.2896201610565185,26.883485794067383,0.2464564815163612,26.447309494018555,0.0101531744003295,1.0614532232284546,-0.027930736541748,-3.4855918884277344,L,False,True,5,L,0,,0.229,RightResponse,incorrect,True,15.0
127,228,2026.4816666666666,10337,2026.07,2026.075,2026.077,0.2341839776478388,27.641203449287943,-0.1778545640408992,-17.693037033081055,-0.177847534418106,-20.04813003540039,-0.1523479223251342,-21.23658561706543,-0.1625511646270752,-19.25707244873047,L,False,True,5,R,400,,0.359,RightResponse,correct,True,11.0
128,229,2029.9576666666665,3403,2029.893,2029.895,2029.897,0.1047221775788492,16.183575502191093,0.0965368151664733,15.104106903076172,0.1372027164325118,20.095346450805664,-0.0405879020690918,-5.811546325683594,-0.0761805772781372,-12.904516220092772,L,False,True,5,L,50,,0.3,LeftResponse,correct,True,11.0
129,230,2033.5256666666667,3410,2033.116,2033.12,2033.125,0.2584070024343594,26.416890949145586,0.2566053569316864,26.237993240356445,0.1626102775335312,19.93361473083496,-0.0304609537124633,-3.0691754817962646,-0.033017873764038,-2.863089799880981,L,False,True,5,L,400,,0.372,RightResponse,incorrect,True,10.0
130,231,2036.0526666666665,6706,2036.042,2036.046,2036.05,0.4406364292445216,45.72113980228007,0.2769289314746856,29.86403083801269,0.2337515773251652,28.017881393432617,0.3427401781082153,34.62025833129883,0.2006329298019409,23.66502571105957,L,False,True,5,R,0,,0.288,LeftResponse,incorrect,True,18.0
131,232,2038.8426666666667,3424,2038.783,2038.787,2038.792,0.2331788273805591,27.467332535468685,0.2311800122261047,26.859397888183597,0.2820253558456898,27.32482147216797,0.0304658412933349,5.746921062469482,0.0863351821899414,11.819072723388672,L,False,True,5,R,50,,0.277,RightResponse,correct,True,10.0
132,233,2041.3816666666667,10377,2041.167,2041.171,2041.177,0.4589679186943681,49.94899275485913,-0.4242427945137024,-47.297210693359375,-0.439551766961813,-46.63460922241211,-0.1751273870468139,-16.058509826660156,-0.1574602127075195,-7.872753620147705,L,False,True,5,R,200,,0.213,RightResponse,correct,True,13.0
133,234,2044.0756666666666,3433,2043.962,2043.967,2043.972,0.2707459032245148,26.7416112795882,0.2693017721176147,26.121845245361328,0.3582485914230346,31.04365921020508,-0.0279266834259033,-5.723895072937012,-0.2310879230499267,-19.760921478271484,L,False,True,5,R,100,,0.343,RightResponse,correct,True,8.0
134,235,2047.2696666666666,3440,2047.058,2047.061,2047.063,0.1887637949996551,25.897212947979583,0.1270292997360229,16.74474334716797,0.1727648973464965,22.103742599487305,-0.1396256685256958,-19.75548553466797,-0.1219172477722168,-16.324918746948242,L,False,True,5,L,200,,0.219,LeftResponse,correct,True,12.0
135,236,2050.578666666667,3444,2050.164,2050.167,2050.172,0.2064636896139348,20.84488206248063,0.1956280767917633,19.95554542541504,0.2235894612967968,24.78424644470215,0.0660068988800048,6.02372932434082,0.0990635752677917,10.18350315093994,L,False,True,5,R,400,,0.278,RightResponse,correct,True,13.0
136,237,2058.014666666667,3456,2057.605,2057.608,2057.612,0.2494550036837583,29.43885790047089,0.195608377456665,22.632448196411133,0.2261295339558273,27.810009002685547,-0.1548068523406982,-18.82600975036621,-0.0304757356643676,-3.186094045639038,L,False,True,5,R,400,,0.387,RightResponse,correct,True,12.0
137,238,2060.770666666667,3464,2060.657,2060.664,2060.668,0.331929950065466,29.78713863736536,0.3023097515106201,27.944429397583008,0.3074217736721039,27.324108123779297,0.1370631456375122,10.314188957214355,0.1854002475738525,15.561291694641112,L,False,True,5,L,100,,0.226,LeftResponse,correct,True,7.0
138,239,2068.6276666666668,3474,2068.217,2068.221,2068.226,0.2564918446285846,27.3085206878262,0.2464395463466644,26.63029670715332,0.2820183783769607,32.682796478271484,0.0711028575897216,6.048355102539063,0.0533373355865478,6.303505897521973,L,False,True,5,L,400,,0.39,RightResponse,incorrect,True,11.0
