,trialIndex,targetOnsetTime,Unnamed: 0,startTime,peakVelocityTime,stopTime,amplitude,peakVelocity,saccade_vec_left_x,peak_velocity_vec_left_x,saccade_vec_right_x,peak_velocity_vec_right_x,saccade_vec_left_y,peak_velocity_vec_left_y,saccade_vec_right_y,peak_velocity_vec_right_y,whichEye,otherEyeMissingData,isBinocular,blockId,arrowDirection,latency,blankDuration,fixationDurationInSec,response,result,isSaccade,blankDurationInFrameCount
0,4,282.2676666666667,908,282.261,282.263,282.267,0.1749683019768608,21.73212193115281,0.1727219820022583,21.728574752807617,0.3023524936288595,36.51784133911133,-0.027946799993515,-0.3926357626914978,-0.0254046916961669,-2.03237533569336,L,False,True,0,L,0,,0.375,LeftResponse,correct,True,5.0
1,7,291.0686666666667,8717,291.012,291.017,291.024,0.7411881390348466,69.69909768741417,0.0812881588935852,10.438252449035645,0.2312108250334859,19.055782318115234,0.7367171049118042,68.91304016113281,0.4751050323247909,43.07608795166016,L,False,True,0,L,50,,0.241,LeftResponse,correct,True,4.0
2,16,330.91266666666667,958,330.8,330.803,330.807,0.3143087636544126,38.24099162272016,0.170201301574707,19.92988586425781,0.1625948846340179,18.70771026611328,0.2642376124858856,32.63698959350586,0.0228588581085205,2.193528413772583,L,False,True,0,R,100,,0.262,RightResponse,correct,True,7.0
3,20,349.7056666666667,15186,349.598,349.6,349.603,0.231829465790157,31.510198075264388,-0.1244621276855468,-17.387859344482422,-0.152430772781372,-19.146203994750977,0.1955865025520324,26.27841186523437,0.1778367161750793,21.64066696166992,L,False,True,0,L,100,,0.351,RightResponse,incorrect,True,6.0
4,25,370.2896666666667,976,370.081,370.085,370.089,0.2284654903725638,25.253531351617045,0.2260733246803283,25.239885330200195,0.4090216755867004,43.32715606689453,0.0329747200012207,0.8300808668136597,-0.0050740242004394,-0.2998293042182922,L,False,True,0,R,200,,0.294,LeftResponse,incorrect,True,10.0
5,30,387.27166666666665,8816,387.213,387.216,387.22,0.2920562522538737,33.108687737200455,0.0762094259262085,10.207447052001951,0.2235733270645141,27.66952896118164,0.2819378972053528,31.49592399597168,0.3199979066848755,35.7172966003418,L,False,True,0,R,50,,0.31,RightResponse,correct,True,3.0
6,31,390.4406666666667,982,390.227,390.23,390.233,0.1993516950590607,24.58726071017984,0.139656662940979,17.428205490112305,0.1346611678600311,17.554460525512695,0.1422572135925293,17.34332847595215,0.0177801251411438,2.4014556407928467,L,False,True,0,R,200,,0.27,RightResponse,correct,True,12.0
7,32,393.64666666666665,985,393.235,393.239,393.243,0.2669333009430774,29.75624925960932,0.2361814975738525,26.78126716613769,0.210885651409626,22.68234062194824,-0.1243852376937866,-12.969120979309082,-0.0431709289550781,-4.9403815269470215,L,False,True,0,L,400,,0.381,RightResponse,incorrect,True,11.0
8,33,396.2776666666667,992,396.168,396.174,396.178,0.3848264693263792,40.75958127158752,0.2387357950210571,22.67327690124512,0.3785720039159059,36.956298828125,-0.3018221855163574,-33.871315002441406,-0.0609145164489746,-5.97603702545166,L,False,True,0,L,100,,0.289,LeftResponse,correct,True,8.0
9,37,412.78566666666666,15227,412.672,412.675,412.68,0.3099082780830584,36.69327157815667,-0.2006371021270752,-21.49536895751953,-0.1981813935562968,-23.0749568939209,-0.2361946105957031,-29.737943649291992,-0.1726900339126587,-18.076923370361328,L,False,True,0,L,100,,0.296,RightResponse,incorrect,True,7.0
10,38,415.6036666666667,22808,415.593,415.597,415.601,0.327000132069998,35.22558281156796,0.0355581045150756,3.555774450302124,-0.0228671170771121,-1.3627879619598389,-0.3250610828399658,-35.045658111572266,-0.1777752637863159,-20.617267608642575,L,False,True,0,R,0,,0.207,LeftResponse,incorrect,True,15.0
11,40,1009.2436666666666,15446,1009.132,1009.135,1009.139,0.2065641185131972,22.23119105446789,-0.1879093647003173,-21.607364654541016,-0.1752723455429077,-20.644649505615234,-0.0857834815979003,-5.229497909545898,-0.0558971911668777,-5.913089275360107,L,False,True,1,R,100,,0.238,LeftResponse,incorrect,True,10.0
12,41,1012.8246666666666,9180,1012.606,1012.61,1012.615,0.5472850510903058,74.40163531776504,0.0330201983451843,11.776643753051758,-0.1016159653663635,-3.3024933338165283,0.546288013458252,73.46369171142578,-0.0813016295433044,-5.012080192565918,L,False,True,1,L,200,,0.239,RightResponse,incorrect,True,13.0
13,42,1018.1416666666667,1265,1017.729,1017.732,1017.737,0.2014872530415077,24.59410241732476,0.1854614317417144,22.125978469848636,0.2489909380674362,26.908676147460938,0.0787475109100341,10.738293647766112,0.0558946132659912,2.402087926864624,L,False,True,1,R,400,,0.253,RightResponse,correct,True,17.0
14,43,1021.8256666666666,1270,1021.419,1021.424,1021.43,0.4141273349523544,43.98342684540165,0.4141273349523544,43.86104583740234,0.4801890626549721,45.6397590637207,0.0,3.278794765472412,0.1143348067998886,5.936169624328613,L,False,True,1,R,400,,0.276,RightResponse,correct,True,16.0
15,44,1024.9646666666665,1279,1024.905,1024.911,1024.917,0.5984522619062878,66.16851310313723,0.5945073217153549,65.73335266113281,0.5208486318588257,52.03844451904297,0.0686014154925942,7.576178073883057,-0.1371631622314453,-19.327714920043945,L,False,True,1,L,50,,0.292,RightResponse,incorrect,True,1.0
16,46,1035.9646666666665,1300,1035.905,1035.909,1035.914,0.3001722565258314,37.2877359463972,0.2489805817604065,31.11110496520996,0.3429710566997528,38.10774612426758,0.167666494846344,20.554182052612305,0.251478910446167,28.05770492553711,L,False,True,1,R,50,,0.341,RightResponse,correct,True,4.0
17,48,1047.5886666666665,1317,1047.375,1047.382,1047.388,0.3424888241476084,31.16628087458331,0.3379060924053192,31.111547470092773,0.3353825323283672,31.15924072265625,0.0558396577835083,1.84626042842865,0.0863813459873199,4.896475315093994,L,False,True,1,R,200,,0.346,RightResponse,correct,True,16.0
18,49,1052.9846666666665,1321,1052.773,1052.777,1052.784,0.3446095860631746,29.001824238775782,0.3150351643562317,26.28353309631348,0.2591515034437179,30.46531867980957,0.1396732330322265,12.258943557739258,0.0101627707481384,1.8015828132629397,L,False,True,1,L,200,,0.316,RightResponse,incorrect,True,15.0
19,50,1056.3986666666665,15536,1056.187,1056.192,1056.196,0.2879888181382279,29.08243152848739,-0.2718643844127655,-28.34135055541992,-0.2515279799699783,-24.55234146118164,-0.0950121879577636,-6.523470878601074,-0.0304850339889526,-3.2563507556915283,L,False,True,1,L,200,,0.398,RightResponse,incorrect,True,18.0
20,52,1064.7456666666665,15576,1064.532,1064.536,1064.543,0.3640314228518066,37.29924613572665,-0.3480396270751953,-33.55695724487305,-0.2744012549519539,-27.44017219543457,-0.1067112684249877,-16.28386878967285,-0.2309145927429199,-14.809511184692385,L,False,True,1,R,200,,0.386,RightResponse,correct,True,21.0
21,53,1070.0416666666665,1384,1069.628,1069.633,1069.639,0.3119990129754965,31.262431217387206,0.3099647611379623,31.13517189025879,0.2667825296521187,28.66471290588379,-0.0355700850486755,-2.817920684814453,-0.0431550741195678,-7.800231456756592,L,False,True,1,R,400,,0.225,RightResponse,correct,True,15.0
22,54,1074.0176666666666,15583,1074.005,1074.012,1074.018,0.444537878036499,40.34722403935376,-0.444537878036499,-40.34275436401367,-0.2616985812783241,-26.054372787475582,0.0,-0.6005480885505676,0.0862938165664672,8.398612022399902,L,False,True,1,L,0,,0.321,RightResponse,incorrect,True,18.0
23,55,1077.6396666666665,15587,1077.633,1077.638,1077.643,0.3181722483163082,33.281006979072444,-0.3023484647274017,-31.828659057617188,-0.2312110108323395,-19.93356132507324,0.0990907941013574,9.72429370880127,0.1472184658050537,14.721942901611328,L,False,True,1,L,0,,0.21,RightResponse,incorrect,True,21.0
24,57,1086.8286666666665,15607,1086.415,1086.421,1086.427,0.4281979580131128,41.67717806225005,-0.4267179369926452,-41.44791030883789,-0.3074013888835907,-34.62003707885742,0.0355709642171859,4.365535736083984,0.0507254600524902,5.026313304901123,L,False,True,1,L,400,,0.254,RightResponse,incorrect,True,14.0
25,58,1092.1536666666666,1409,1092.039,1092.046,1092.052,0.4425331894513311,39.44922419634753,0.4115918129682541,35.731483459472656,0.4344654120504856,38.61912536621094,0.1625663042068481,16.718324661254883,0.0101529359817504,3.115075826644897,L,False,True,1,R,100,,0.235,RightResponse,correct,True,13.0
26,59,1095.4846666666665,15615,1095.422,1095.426,1095.43,0.2290080467790319,25.48989249831664,-0.2184958457946777,-25.129308700561523,-0.2566117793321609,-28.94095230102539,0.0685875415802002,4.272290229797363,-0.0101537704467773,-3.692296266555786,L,False,True,1,R,50,,0.365,RightResponse,correct,True,3.0
27,61,1104.7316666666666,1424,1104.52,1104.522,1104.524,0.1021295348027373,15.448154868351388,0.1016227006912231,15.428184509277344,0.1371987760066986,18.177677154541016,0.0101621150970458,-0.7852461934089661,-0.0634483098983764,-8.329020500183105,L,False,True,1,R,200,,0.246,RightResponse,correct,True,20.0
28,63,1112.1256666666666,15633,1112.013,1112.017,1112.023,0.3165429945612768,28.75690756072886,-0.2997840642929077,-27.16084861755371,-0.2819953560829162,-27.414331436157227,0.1016316004097461,9.447117805480955,0.1953668594360351,22.903493881225582,L,False,True,1,R,100,,0.26,RightResponse,correct,True,12.0
29,65,1122.3046666666667,1437,1122.25,1122.252,1122.254,0.1226404814481613,18.623212321214552,0.1194143444299697,17.43865394592285,0.1676813066005706,23.581443786621094,0.0279446244239807,6.535853862762451,-0.045670747756958,-7.542632102966309,L,False,True,1,R,50,,0.262,RightResponse,correct,True,5.0
30,66,1125.4236666666666,15639,1125.311,1125.314,1125.319,0.1981661021709442,22.00902780276738,-0.1981661021709442,-21.664363861083984,-0.2413564920425415,-26.491594314575195,0.0,3.879773616790772,0.0,-4.939074993133545,L,False,True,1,R,100,,0.346,RightResponse,correct,True,11.0
31,67,1128.5166666666667,15640,1128.403,1128.409,1128.416,0.4596071090909426,39.6890845982207,-0.4573266431689262,-39.68131637573242,-0.505582869052887,-50.18852996826172,-0.0457278490066528,0.7852177619934082,0.0431408882141113,3.714296340942383,L,False,True,1,L,100,,0.338,RightResponse,incorrect,True,10.0
32,68,1131.4266666666665,1443,1131.411,1131.419,1131.429,0.6129155404830873,49.954038347732734,0.5589308142662048,41.0418815612793,0.4344562590122223,31.734901428222656,0.2515189945697784,28.4775333404541,0.081179141998291,7.679380416870117,L,False,True,1,L,0,,0.21,RightResponse,incorrect,True,27.0
33,75,1168.5806666666665,15720,1168.475,1168.479,1168.486,0.3444632772387948,31.869582675559005,-0.3353372812271118,-28.9383602142334,-0.4116070121526718,-41.36863708496094,0.0787645680829882,13.350715637207031,0.0660046339035034,6.461938381195068,L,False,True,1,L,100,,0.34,RightResponse,incorrect,True,13.0
34,76,1172.7446666666665,15724,1172.683,1172.687,1172.693,0.2967515843655868,30.495171545080595,-0.2514877915382385,-27.550649642944336,-0.2896489463746547,-32.24481964111328,-0.1575290244072675,-13.073530197143556,-0.2563434839248657,-30.29463768005371,L,False,True,1,L,50,,0.222,RightResponse,incorrect,True,4.0
35,79,1190.1926666666666,1566,1190.184,1190.191,1190.193,1.451535408922897,271.7564128146073,0.2108737230300903,21.688230514526367,0.2566188601776957,17.785533905029297,1.436136245727539,270.8895874023437,-0.0025380849838256,-6.967875957489014,L,False,True,1,R,0,,0.321,RightResponse,correct,True,30.0
36,84,1407.3256666666666,16527,1406.916,1406.918,1406.921,0.2057591628868999,25.63219253248686,-0.2053670883178711,-25.63043594360352,-0.2283234596252441,-29.959999084472656,-0.0126961469650268,0.3000789284706116,-0.0532839298248291,-6.689425945281982,L,False,True,2,L,400,,0.286,RightResponse,incorrect,True,23.0
37,88,1443.6936666666666,16705,1443.628,1443.636,1443.644,1.2331531669562883,118.79828395373612,-1.2233903408050537,-118.78498840332033,-0.564049482345581,-54.14155197143555,0.1548638343811035,1.7773014307022097,-0.121957279741764,-1.9864189624786377,L,False,True,2,R,50,,0.211,RightResponse,correct,True,7.0
38,99,1515.2326666666665,17533,1514.816,1514.822,1514.828,0.548616929684855,51.98959615721423,-0.526494026184082,-50.30230712890625,-0.2461962699890136,-32.047203063964844,0.1542224884033203,13.137579917907717,-0.0025396347045898,-6.926194190979004,L,False,True,2,L,400,,0.398,RightResponse,incorrect,True,26.0
39,103,1549.2226666666666,17877,1549.165,1549.168,1549.173,0.2670050856400276,33.086056593868186,-0.2638924121856689,-32.87115859985352,-0.3705716133117676,-38.90391540527344,0.0406510829925537,3.764847040176392,-0.0457341521978378,-2.4021899700164795,L,False,True,2,L,50,,0.332,RightResponse,incorrect,True,6.0
40,110,1584.8026666666665,18342,1584.796,1584.799,1584.8,0.1984895763825942,21.2982914287356,-0.1279425621032714,-15.257441520690918,0.0228552818298339,9.39630889892578,-0.1517524719238281,-14.860272407531738,0.0685780048370361,13.277195930480955,L,False,True,2,R,0,,0.244,RightResponse,correct,True,29.0
41,111,1588.7206666666666,18409,1588.707,1588.713,1588.718,0.3943056087808629,40.26317010586654,-0.3829436302185058,-39.74817657470703,-0.4542585611343384,-42.24310302734375,0.0939738750457763,6.419137477874756,0.0203145742416381,0.761806070804596,L,False,True,2,L,0,,0.298,RightResponse,incorrect,True,28.0
42,115,1614.7836666666665,4633,1614.764,1614.767,1614.77,1.235424753542152,115.5086791792258,0.970522403717041,91.34475708007812,-0.0279459357261657,-4.919393539428711,0.764434814453125,70.69929504394531,0.0127038657665252,0.5543506741523743,L,False,True,2,R,0,,0.215,RightResponse,correct,True,31.0
43,119,1659.4606666666666,19477,1659.396,1659.4,1659.404,0.2965169040988892,32.07717748553435,-0.289633959531784,-31.273117065429688,-0.2944363355636596,-37.68133163452149,-0.0635172724723815,-7.137048721313477,-0.027944266796112,-6.120005130767822,L,False,True,2,L,50,,0.245,RightResponse,incorrect,True,9.0
44,120,1882.0016666666666,19644,1881.937,1881.942,1881.947,0.3064601008730776,31.26638768051878,-0.2998131066560745,-30.720468521118164,-0.2464547827839851,-26.909107208251957,-0.0634814500808715,-5.81719970703125,-0.2004449367523193,-17.991695404052734,L,False,True,3,R,50,,0.354,RightResponse,correct,True,12.0
45,121,1887.7556666666665,5532,1887.744,1887.749,1887.754,0.2505590483128222,23.701350208229535,0.2489956319332122,23.698469161987305,0.3277406394481659,29.217119216918945,-0.0279465913772583,-0.3695417046546936,0.1447302103042602,18.580602645874023,L,False,True,3,R,0,,0.327,RightResponse,correct,True,30.0
46,122,1892.1146666666666,5539,1891.704,1891.708,1891.714,0.4204411434837202,44.25891712827769,0.3938082605600357,40.32804107666016,0.3759468197822571,38.61114501953125,-0.1472610235214233,-18.23460578918457,-0.10148286819458,-6.850072383880615,L,False,True,3,L,400,,0.337,RightResponse,incorrect,True,29.0
47,123,1895.4326666666666,19667,1895.32,1895.325,1895.33,0.4010628081049336,41.52954740232975,-0.383657805621624,-40.02888870239258,-0.373452365398407,-43.97389221191406,0.11686772108078,11.063063621520996,0.0304758548736572,3.647916555404663,L,False,True,3,R,100,,0.37,RightResponse,correct,True,19.0
48,124,1898.7006666666666,5555,1898.643,1898.647,1898.653,0.3657693105755411,37.87815136121448,0.3506231531500816,36.147891998291016,0.5386106222867966,52.01373672485352,0.104166179895401,11.317431449890137,0.3835116028785705,31.77198028564453,L,False,True,3,L,50,,0.301,RightResponse,incorrect,True,11.0
49,125,1902.4816666666666,5559,1902.069,1902.073,1902.077,0.2840963281763307,30.90420189935719,0.2566103190183639,28.52506256103516,0.2693093419075012,30.2800350189209,-0.1219092607498169,-11.89077377319336,-0.0482159852981567,-2.1686506271362305,L,False,True,3,R,400,,0.375,RightResponse,correct,True,32.0
50,127,1913.7686666666666,5576,1913.658,1913.66,1913.664,0.1941622724037152,23.703336365843512,0.1930983662605285,23.60607147216797,0.2185073047876358,26.56275177001953,-0.0202980041503906,2.1451210975646973,-0.0787625312805175,-9.1697416305542,L,False,True,3,L,100,,0.368,RightResponse,incorrect,True,18.0
51,128,1918.6936666666666,19696,1918.486,1918.491,1918.498,0.3611123833065853,33.584812010941405,-0.360790453851223,-33.58452606201172,-0.3480878472328186,-29.750343322753903,-0.0152447298169136,0.138589322566986,-0.0254032611846923,2.6558525562286377,L,False,True,3,R,200,,0.286,RightResponse,correct,True,19.0
52,129,1922.4826666666665,19698,1922.271,1922.276,1922.281,0.3991001491786803,40.68409269987822,-0.3633264824748039,-40.09759140014648,-0.3353771269321441,-32.382938385009766,0.1651508286595344,6.883208751678467,0.1752277612686157,18.10012435913086,L,False,True,3,L,200,,0.25,RightResponse,incorrect,True,18.0
53,130,1927.4986666666666,5588,1927.489,1927.493,1927.501,0.3526229619468644,28.71205349734728,0.3073998987674713,24.272878646850582,0.4115984179079532,33.60731887817383,-0.1727664768695831,-15.33653736114502,-0.1295047998428344,-4.409270286560059,L,False,True,3,L,0,,0.212,RightResponse,incorrect,True,29.0
54,131,1932.1616666666666,5589,1932.055,1932.059,1932.062,0.1878217273815428,21.3197584422186,0.1727655529975891,19.355323791503903,0.2794859260320663,30.99750518798828,-0.0736821889877319,-8.938878059387207,0.0101580619812011,0.3924711048603058,L,False,True,3,R,100,,0.219,RightResponse,correct,True,21.0
55,132,1936.0586666666666,5590,1935.951,1935.955,1935.96,0.3210632534508935,35.404213609042394,0.3124949336051941,35.36067199707031,0.3658633902668953,38.13386917114258,-0.0736785531044006,-1.7553396224975586,-0.0406301021575927,-7.96442699432373,L,False,True,3,L,100,,0.247,RightResponse,incorrect,True,20.0
56,133,1940.0476666666666,5593,1939.638,1939.641,1939.644,0.1965618704718544,23.85732034672433,0.1905426979064941,23.14229202270508,0.1498936116695404,19.58549118041992,-0.0482705831527709,-5.797072887420654,0.0304546356201171,3.3223440647125244,L,False,True,3,L,400,,0.335,RightResponse,incorrect,True,31.0
57,134,1943.3406666666665,19711,1943.128,1943.135,1943.144,0.980506719060317,91.64284842761138,-0.937529683113098,-87.23997497558594,-0.8052728474140167,-73.45936584472656,0.2871088981628418,28.064184188842773,0.2083290517330169,11.663594245910645,L,False,True,3,L,200,,0.217,RightResponse,incorrect,True,21.0
58,135,1948.1746666666666,19721,1948.162,1948.168,1948.175,0.4140627723864125,40.690057134556994,-0.4065023958683014,-40.67366409301758,-0.2413680404424667,-24.92231559753418,0.0787640884518623,1.154902100563049,0.1395624876022339,6.897363185882568,L,False,True,3,L,0,,0.262,RightResponse,incorrect,True,32.0
59,140,1973.8706666666665,5657,1973.809,1973.816,1973.821,0.3989753981077982,34.744658674174545,0.3963598944246769,34.462013244628906,0.7876288145780563,69.38609313964844,-0.0456092357635498,-4.422776222229004,0.0558807253837585,-4.110138893127441,L,False,True,3,L,50,,0.207,LeftResponse,correct,True,14.0
60,142,1980.1656666666665,19779,1980.156,1980.158,1980.162,0.1938192732225757,24.43310335177456,-0.1803961098194122,-22.566843032836918,-0.2845683768391609,-34.23137283325195,0.0708742141723632,9.365582466125488,0.0812374353408813,6.785213947296143,L,False,True,3,L,0,,0.227,RightResponse,incorrect,True,38.0
61,145,1990.2166666666665,19787,1990.001,1990.006,1990.01,0.2306644199372659,23.509487920415083,-0.215914249420166,-22.46886444091797,-0.1727209687232971,-18.1031551361084,0.0811610221862793,6.917091369628906,0.0254077762365341,-10.994658470153809,L,False,True,3,L,200,,0.272,RightResponse,incorrect,True,24.0
62,147,1997.2776666666666,5690,1996.867,1996.87,1996.874,0.1932289409299153,20.613069707157816,0.193078875541687,20.578125,0.2439098209142685,27.16266822814941,0.0076138973236083,1.1997559070587158,-0.0635198689997196,-7.99195384979248,L,False,True,3,L,400,,0.216,RightResponse,incorrect,True,33.0
63,149,2004.2676666666666,19801,2004.052,2004.058,2004.063,0.3859654937060158,36.06007012123307,-0.370920717716217,-35.72921371459961,-0.2642420381307602,-23.906524658203125,0.106710746884346,4.873596668243408,0.0838274359703064,5.958035945892334,L,False,True,3,R,200,,0.384,RightResponse,correct,True,30.0
64,150,2008.1936666666666,19806,2008.13,2008.133,2008.139,0.2640137411944244,30.24746102834906,-0.2616065144538879,-26.692039489746094,-0.2997710704803467,-29.12307548522949,-0.0355708748102188,-14.228279113769531,0.0914573669433593,7.8754377365112305,L,False,True,3,L,50,,0.388,LeftResponse,correct,True,13.0
65,152,2014.9556666666665,19811,2014.943,2014.949,2014.953,0.3306805603763425,35.97789104382372,-0.2921102643013,-30.34208869934082,-0.3556908965110779,-39.842041015625,0.1549878269433975,19.33303642272949,0.0101574659347534,3.6012091636657715,L,False,True,3,R,0,,0.389,RightResponse,correct,True,40.0
66,154,2022.0996666666665,19815,2022.037,2022.041,2022.045,0.2571337574467802,29.66435725226207,-0.2032384276390075,-24.73499870300293,-0.1321061849594116,-18.49935913085937,0.1575179696083068,16.37540626525879,0.1549709439277649,15.312259674072266,L,False,True,3,R,50,,0.266,RightResponse,correct,True,15.0
67,160,2275.1786666666667,20111,2275.166,2275.177,2275.18,0.4111109537765806,32.24979694151357,-0.4039832353591919,-26.701414108276367,-0.4014426246285438,-29.634855270385746,0.0762217938899993,18.0854606628418,0.033030018210411,-0.1847827434539795,L,False,True,4,R,0,,0.247,RightResponse,correct,True,38.0
68,161,2280.145666666667,20115,2280.133,2280.135,2280.139,0.1609454214841855,19.58548556407084,-0.1575198173522949,-19.30890846252441,-0.2083444343879819,-25.015167236328125,-0.0330293178558349,-3.279832124710083,-0.1142065525054931,-12.551319122314451,L,False,True,4,R,0,,0.381,RightResponse,correct,True,37.0
69,163,2295.1096666666667,6187,2295.096,2295.103,2295.111,0.7544018736797801,64.89767714694537,0.7393595576286316,64.78972625732422,0.6223105192184448,52.62542724609375,-0.1498987376689911,-3.741640090942383,-0.4039632380008697,-21.849836349487305,L,False,True,4,R,0,,0.362,LeftResponse,incorrect,True,36.0
70,164,2300.500666666667,6201,2300.287,2300.295,2300.302,0.7668409934759782,63.33585647946291,0.6579905450344086,56.65255737304688,0.5562232136726379,47.54121398925781,0.3938191868364811,28.318164825439453,0.1295740604400634,7.575767993927002,L,False,True,4,R,200,,0.352,RightResponse,correct,True,28.0
71,165,2305.0846666666666,20317,2305.024,2305.028,2305.033,0.2820322834098759,32.27274482498652,-0.2769407406449318,-31.15867042541504,-0.3099011182785034,-33.80735397338867,0.0533482432365417,8.40638542175293,-0.0228667706251144,-6.744543075561523,L,False,True,4,L,50,,0.354,RightResponse,incorrect,True,16.0
72,167,2313.1116666666667,6226,2313.101,2313.104,2313.107,0.1712795799882276,20.800358723591497,0.1600667536258697,19.563720703125,0.1726682186126709,21.883663177490234,0.0609534978866577,7.065108299255371,0.0177805423736572,1.2007728815078735,L,False,True,4,R,0,,0.39,RightResponse,correct,True,39.0
73,168,2319.2616666666668,27062,2318.854,2318.857,2318.861,0.2286985083163002,27.707790208405623,-0.0101628303527832,-1.4320347309112549,0.0889027714729309,9.975632667541504,-0.2284725904464721,-27.670759201049805,-0.1776769161224365,-17.468055725097656,L,False,True,4,R,400,,0.22,LeftResponse,incorrect,True,42.0
74,169,2322.2876666666666,20337,2322.175,2322.183,2322.189,0.7168860171421622,69.6462165038152,-0.6580571085214615,-62.17970275878906,-0.6171935796737671,-57.21760177612305,0.2844053506851196,31.37323760986328,0.060922622680664,8.2843656539917,L,False,True,4,R,100,,0.364,RightResponse,correct,True,28.0
75,170,2327.2966666666666,20339,2326.884,2326.892,2326.897,0.5656171582921129,49.475720841003,-0.4751039147377014,-42.12834167480469,-0.375893771648407,-32.90386962890625,-0.3069186210632324,-25.94320297241211,-0.0025379657745361,3.1377084255218506,L,False,True,4,R,400,,0.36,RightResponse,correct,True,45.0
76,171,2333.828666666667,6246,2333.766,2333.772,2333.777,0.4956793350715341,50.14245287069066,0.4953609704971313,50.13631820678711,0.6449105739593506,68.36872100830078,0.0177626609802246,-0.7843319177627563,0.0711265206336975,10.92313003540039,L,False,True,4,R,50,,0.25,RightResponse,correct,True,19.0
77,172,2336.9886666666666,6262,2336.978,2336.982,2336.987,0.374637207981976,41.72613736650092,0.3226591944694519,38.70989990234375,0.2590733766555786,29.20901870727539,0.1903787851333618,15.576077461242676,0.0431593656539917,4.246651649475098,L,False,True,4,L,0,,0.317,RightResponse,incorrect,True,38.0
78,173,2342.222666666667,20367,2341.81,2341.815,2341.819,0.3250227020657937,30.950973279943437,-0.2261279970407486,-22.63593292236328,-0.215910255908966,-19.559268951416016,0.2334649562835693,21.108701705932617,0.0659699440002441,6.666167259216309,L,False,True,4,L,400,,0.348,RightResponse,incorrect,True,44.0
79,177,2358.679666666667,6303,2358.567,2358.572,2358.58,0.4918876608495961,48.80590537480912,0.4877975434064865,46.77002334594727,0.627559058368206,50.69972610473633,0.0633010864257812,13.949240684509276,0.0406129360198974,12.415115356445312,L,False,True,4,L,100,,0.33,RightResponse,incorrect,True,27.0
80,178,2361.5156666666667,20411,2361.505,2361.508,2361.511,0.2649415880836502,30.315473142935936,-0.2637672424316406,-30.111352920532227,-0.2540687322616577,-30.21115493774414,-0.0249176025390625,-3.5120275020599365,0.0659408569335937,8.023538589477539,L,False,True,4,L,0,,0.365,LeftResponse,correct,True,41.0
81,180,2385.858666666667,20606,2385.745,2385.748,2385.751,0.2042337290812053,24.083298144004257,-0.1980178356170654,-23.425235748291016,-0.1879932880401611,-24.55000305175781,-0.0500035285949707,-5.591384410858154,-0.005080759525299,1.2701938152313232,L,False,True,4,L,100,,0.243,RightResponse,incorrect,True,30.0
82,181,2390.175666666667,20627,2389.961,2389.968,2389.974,0.3858872548848282,36.67302936489903,-0.3726048469543457,-36.54539489746094,-0.353140652179718,-33.582157135009766,0.100372314453125,3.0569911003112797,-0.0101630389690399,-2.448376178741455,L,False,True,4,L,200,,0.255,LeftResponse,correct,True,27.0
83,182,2395.646666666667,20633,2395.537,2395.542,2395.548,0.2825375762365128,26.9568098285866,-0.2814240455627441,-26.599559783935547,-0.3708895444869995,-39.12129211425781,-0.025059700012207,4.3741302490234375,0.065950870513916,0.5764994621276855,L,False,True,4,L,100,,0.321,LeftResponse,correct,True,33.0
84,183,2398.4446666666668,20635,2398.386,2398.393,2398.396,0.3210850573352485,33.93244682284352,-0.3066675662994385,-31.17213249206543,-0.469980239868164,-33.37335586547852,0.0951347351074218,13.405562400817873,0.0862390995025634,10.46843433380127,L,False,True,4,L,50,,0.245,LeftResponse,correct,True,21.0
85,184,2400.884666666667,6523,2400.817,2400.82,2400.827,0.4110024615673683,43.407725228211255,0.4031362533569336,43.21663284301758,0.4445709884166717,42.35643005371094,0.0800261497497558,-4.068569183349609,0.3985295295715332,30.481624603271484,L,False,True,4,R,50,,0.213,LeftResponse,incorrect,True,20.0
86,185,2405.0556666666666,6527,2404.945,2404.95,2404.96,0.4270022958974304,30.694610160533067,0.4008138179779053,30.393442153930664,0.4594556093215942,32.53956604003906,-0.1472387313842773,4.289261817932129,-0.2359602451324463,-19.12221908569336,L,False,True,4,R,100,,0.245,RightResponse,correct,True,32.0
87,186,2409.4646666666667,6536,2409.253,2409.264,2409.267,0.4463545494288173,38.277020461884455,0.4262229204177856,22.16757202148437,0.2640438079833984,10.54701805114746,-0.1325383186340332,-31.20463180541992,0.0304493904113769,3.8523147106170654,L,False,True,4,L,200,,0.353,RightResponse,incorrect,True,26.0
88,187,2415.018666666667,20658,2414.604,2414.609,2414.612,0.2847407204814688,32.41236250724544,-0.2435252666473388,-26.79685401916504,-0.2209075689315796,-24.58400535583496,0.1475558280944824,18.234304428100582,-0.11166512966156,-12.48153591156006,L,False,True,4,L,400,,0.326,LeftResponse,correct,True,47.0
89,188,2420.8726666666666,13242,2420.81,2420.815,2420.817,0.2290046332465206,33.22411408401512,0.1116430759429931,13.079094886779783,0.1675124168395996,18.6430606842041,0.1999473571777343,30.541431427001957,-0.0431659221649169,-2.8392343521118164,L,False,True,4,R,50,,0.215,LeftResponse,incorrect,True,23.0
90,189,2425.4526666666666,20674,2425.392,2425.395,2425.402,0.3897987689311664,41.93737877211932,-0.380411148071289,-36.26749038696289,-0.4112757444381714,-30.601137161254883,0.0850319862365722,21.057371139526367,-0.0177574157714843,-1.7296311855316162,L,False,True,4,L,50,,0.312,RightResponse,incorrect,True,26.0
91,191,2433.1966666666667,6566,2433.135,2433.139,2433.146,0.35072741445091,37.41125782175509,0.314579963684082,33.97183609008789,0.3451714515686035,28.91126823425293,-0.1550779342651367,-15.668968200683594,-0.0228314399719238,-0.046131707727909,L,False,True,4,L,50,,0.333,RightResponse,incorrect,True,29.0
92,195,2450.449666666667,6613,2450.441,2450.446,2450.452,0.4330042906995024,47.71910103802095,0.4286994934082031,47.41274642944336,0.6172555088996887,62.09437561035156,-0.0609053373336792,-5.398525714874268,-0.0482058525085449,0.4152272045612335,L,False,True,4,L,0,,0.384,LeftResponse,correct,True,39.0
93,197,2458.288666666667,20744,2457.88,2457.886,2457.892,0.3841604391233345,38.82092015816985,-0.3731374740600586,-38.0057373046875,-0.4394747018814087,-33.971336364746094,0.0913655757904052,7.913771152496338,0.0862550735473632,7.564467906951904,L,False,True,4,L,400,,0.244,RightResponse,incorrect,True,46.0
94,198,2463.6386666666667,20749,2463.426,2463.432,2463.439,0.4227486906397334,37.62745129309085,-0.4162952899932861,-37.522064208984375,-0.4673603177070617,-45.2119255065918,0.0735845565795898,2.814211845397949,-0.1091296672821044,-2.999349594116211,L,False,True,4,R,200,,0.324,RightResponse,correct,True,35.0
95,203,2586.670666666667,6836,2586.563,2586.569,2586.573,0.2845291322660016,26.099494296280387,0.2794817090034485,25.82314109802246,0.4370125457644462,42.31531524658203,-0.0533554255962371,-3.7880055904388423,-0.0050792694091796,-0.9234994649887084,L,False,True,5,R,100,,0.202,RightResponse,correct,True,30.0
96,204,2592.1246666666666,6850,2592.015,2592.021,2592.027,0.5146964485282799,50.90855370169236,0.4598472118377685,46.26185989379883,0.6301020905375481,62.73359298706055,0.2311989963054657,21.249027252197266,0.1066261529922485,8.377793312072754,L,False,True,5,R,100,,0.386,LeftResponse,incorrect,True,29.0
97,206,2600.1066666666666,6871,2599.899,2599.902,2599.906,0.1778700606162863,21.309106606162988,0.1651477366685867,20.325883865356445,0.2921907901763916,34.67023468017578,0.0660604536533355,6.3981614112854,0.1574327945709228,17.42850112915039,L,False,True,5,R,200,,0.287,RightResponse,correct,True,32.0
98,207,2604.744666666667,20951,2604.633,2604.636,2604.638,0.1886525704568928,26.047115563298615,-0.134661978110671,-17.30048370361328,-0.1143336445093154,-14.505375862121582,-0.1321209445595741,-19.47165870666504,-0.0889031291007995,-12.538850784301758,L,False,True,5,R,100,,0.281,RightResponse,correct,True,35.0
99,208,2608.6246666666666,20956,2608.515,2608.518,2608.523,0.2043074222501729,24.237180828852065,-0.1905584521591663,-23.259675979614254,-0.1930934190750122,-17.854156494140625,0.0736817419528961,6.813839435577393,0.0584194660186767,1.9627163410186768,L,False,True,5,L,100,,0.259,RightResponse,incorrect,True,34.0
100,211,2620.9486666666667,13794,2620.932,2620.936,2620.942,0.9239073623186924,105.6650305085831,-0.0127038210630416,18.8245849609375,-0.2261137962341308,-12.05610466003418,0.9238200187683104,103.97467803955078,0.0964969396591186,0.7617375254631042,L,False,True,5,R,0,,0.397,RightResponse,correct,True,38.0
101,212,2624.641666666667,21027,2624.23,2624.236,2624.241,0.492981862460277,51.37943495355824,-0.4420814588665962,-46.148067474365234,-0.299811527132988,-29.149620056152344,0.2181630134582519,22.587656021118164,0.4520962834358215,38.721492767333984,L,False,True,5,R,400,,0.342,RightResponse,correct,True,48.0
102,214,2632.567666666667,21080,2632.558,2632.562,2632.568,0.3710256595077291,41.03280090650808,-0.3633251041173935,-36.44821166992188,-0.2464495748281479,-23.998275756835938,0.0751991271972656,18.847244262695312,0.040644884109497,5.380824565887451,L,False,True,5,L,0,,0.287,RightResponse,incorrect,True,37.0
103,215,2637.1316666666667,7060,2637.117,2637.125,2637.133,0.5232032810331099,38.67468425277324,0.4979803897440433,37.71834182739258,0.5208419263362885,48.66584396362305,0.1604905128479004,8.547390937805176,0.0787567496299743,10.369829177856444,L,False,True,5,R,0,,0.294,LeftResponse,incorrect,True,40.0
104,216,2640.3036666666667,14081,2640.29,2640.293,2640.297,0.7635039230809684,96.55893184704792,0.0076215863227844,6.166537761688232,-0.1956375986337661,-21.850475311279297,0.7634658813476562,96.36182403564452,0.073668897151947,8.267560958862305,L,False,True,5,R,0,,0.223,RightResponse,correct,True,43.0
105,219,2650.212666666667,7128,2650.204,2650.207,2650.21,0.1944480322387937,21.373533579528694,0.1931001357734203,21.13476181030273,0.0990881323814392,12.703624725341797,0.022855520248413,3.1858720779418945,-0.0533465147018432,-6.581717014312744,L,False,True,5,L,0,,0.334,RightResponse,incorrect,True,42.0
106,220,2653.759666666667,21183,2653.751,2653.757,2653.758,0.1890507831792036,27.02477652962716,-0.1626098714768886,-16.584331512451172,-0.1397323608398437,-8.545534133911133,-0.096427321434021,-21.337724685668945,-0.157499074935913,-14.36448860168457,L,False,True,5,L,0,,0.316,RightResponse,incorrect,True,45.0
107,225,2671.924666666667,28570,2671.716,2671.717,2671.721,0.1965618719625757,25.68074948660536,0.0482749417424202,7.899544239044189,0.1295650601387024,19.39996337890625,-0.1905415952205658,-24.435590744018555,-0.1143154501914978,-18.38271713256836,L,False,True,5,R,200,,0.359,LeftResponse,incorrect,True,33.0
108,226,2675.063666666667,28579,2674.858,2674.862,2674.866,0.3147620051216898,37.4283678409314,0.0381117612123489,3.418506383895874,0.1447809338569641,16.57952880859375,-0.3124461770057678,-37.27192687988281,-0.2362307906150818,-25.23955345153809,L,False,True,5,L,200,,0.241,RightResponse,incorrect,True,36.0
109,230,2689.123666666667,7201,2689.061,2689.069,2689.077,0.8373450506543877,68.89417383842438,0.8228958249092102,67.74442291259766,0.7314172387123108,71.2503662109375,-0.1548844575881958,-12.533967971801758,-0.04827481508255,-4.504119396209717,L,False,True,5,R,50,,0.339,RightResponse,correct,True,32.0
110,232,2696.675666666667,21264,2696.613,2696.613,2696.618,0.1261197542186539,19.144156563019006,-0.11428964138031,-15.07736873626709,-0.0914309024810791,-5.749162197113037,0.0533298254013061,11.797104835510254,0.0635197088122367,5.266355037689209,L,False,True,5,L,50,,0.276,RightResponse,incorrect,True,31.0
