,trialIndex,targetOnsetTime,Unnamed: 0,startTime,peakVelocityTime,stopTime,amplitude,peakVelocity,saccade_vec_left_x,peak_velocity_vec_left_x,saccade_vec_right_x,peak_velocity_vec_right_x,saccade_vec_left_y,peak_velocity_vec_left_y,saccade_vec_right_y,peak_velocity_vec_right_y,whichEye,otherEyeMissingData,isBinocular,blockId,arrowDirection,latency,blankDuration,fixationDurationInSec,response,result,isSaccade,blankDurationInFrameCount
0,2,327.8036666666667,1320,327.794,327.801,327.807,0.4116148378954725,40.78036535028784,0.4116069972515106,40.49091720581055,0.5157162845134735,51.40953826904297,0.0025405883789062,-4.850136280059815,-0.0076222717761993,-0.300271213054657,L,False,True,0,L,0,,0.378,RightResponse,incorrect,True,4.0
1,5,341.89666666666665,8384,341.775,341.781,341.786,0.3032811866387785,36.20195002856665,-0.2998130321502685,-35.64033508300781,-0.0736824125051498,-9.169886589050291,-0.0457342751324176,-6.351984024047852,-0.1549819409847259,-14.851435661315918,L,False,True,0,L,100,,0.397,RightResponse,incorrect,True,4.0
2,6,345.7026666666667,12684,345.494,345.496,345.5,0.1772736274196481,21.48031698672965,0.0813052356243133,8.661778450012207,0.1371833086013794,17.94475555419922,-0.1575290374457836,-19.65649032592773,-0.1676698923110962,-21.293458938598636,L,False,True,0,R,200,,0.362,LeftResponse,incorrect,True,4.0
3,8,354.9696666666667,12696,354.949,354.955,354.975,0.914015922509109,61.63497657468122,-0.3201342523097992,-24.6452693939209,-0.2769291400909424,-7.898777484893799,-0.8561186641454697,-56.493194580078125,-0.6807296872138977,-38.98158645629883,L,False,True,0,R,0,,0.242,RightResponse,correct,True,7.0
4,9,358.57166666666666,12703,358.36,358.364,358.369,0.2529013669779789,25.817125045963472,0.0965460836887359,9.100281715393066,0.2235742807388305,24.782554626464844,-0.2337476313114166,-24.160066604614254,-0.1575209498405456,-19.401350021362305,L,False,True,0,R,200,,0.341,RightResponse,correct,True,7.0
5,10,363.07166666666666,8414,363.063,363.067,363.071,0.2153825325824424,25.37031022056179,-0.2058041095733642,-24.1837215423584,-0.2083448991179466,-23.767953872680664,0.0635161697864532,7.668132305145264,0.0457340031862258,4.088344573974609,L,False,True,0,R,0,,0.322,RightResponse,correct,True,6.0
6,11,366.7436666666667,8432,366.634,366.64,366.646,0.5761325635558318,61.37284594187869,-0.5437203496694565,-58.69136428833008,-0.3734947070479393,-36.7027702331543,-0.1905174851417541,-17.942964553833008,-0.2134216278791427,-25.546016693115234,L,False,True,0,L,100,,0.343,LeftResponse,correct,True,7.0
7,12,369.93266666666665,1406,369.521,369.527,369.532,0.2672470647534374,29.65665298228112,0.2439110577106475,26.354368209838867,0.294715017080307,29.05587387084961,-0.1092171669006347,-13.600159645080566,-0.0990815162658691,-7.66786003112793,L,False,True,0,R,400,,0.309,RightResponse,correct,True,4.0
8,13,375.7576666666667,8442,375.545,375.55,375.554,0.3256105879457337,38.66508086186344,-0.2998112677596509,-36.49477767944336,-0.188018349930644,-22.77470016479492,0.1270254254341125,12.771831512451172,0.0330294966697692,4.249958038330078,L,False,True,0,L,200,,0.315,RightResponse,incorrect,True,6.0
9,14,379.0586666666667,8453,378.947,378.952,378.958,0.406577963496362,47.47736934265753,-0.4065065234899521,-47.37181854248047,-0.3023533076047897,-28.11034774780273,-0.0076214671134948,-3.164080858230591,0.0355699956417083,-4.619500637054443,L,False,True,0,R,100,,0.387,RightResponse,correct,True,6.0
10,15,383.55966666666666,8461,383.45,383.455,383.46,0.2719955151118752,30.05817214754809,-0.2693146765232086,-30.049650192260746,-0.3048601746559143,-34.296844482421875,0.038094162940979,0.7157067656517029,0.0406479835510253,0.6466712355613708,L,False,True,0,R,100,,0.247,RightResponse,correct,True,5.0
11,16,387.83566666666667,8470,387.426,387.431,387.434,0.2827939782585539,32.205061926048444,-0.2413748390972614,-27.00164604187012,-0.1905592866241932,-21.27334976196289,0.1473452448844909,17.552125930786133,0.1346619604155421,18.94044303894043,L,False,True,0,L,400,,0.315,RightResponse,incorrect,True,3.0
12,18,396.68266666666665,1444,396.573,396.579,396.586,0.6316713955458807,65.18467610519883,0.5868495106697083,61.24870300292969,0.5919977575540543,57.929683685302734,0.2337015271186828,22.307809829711918,0.0279484689235687,7.553038597106934,L,False,True,0,R,100,,0.286,RightResponse,correct,True,4.0
13,20,404.3396666666667,1457,404.331,404.336,404.34,0.2026130121136386,21.871143024985,0.2006770968437194,21.822704315185547,0.3582460284233093,38.111236572265625,0.0279416441917419,1.4548105001449585,0.0940057933330535,9.354388236999512,L,False,True,0,R,0,,0.367,RightResponse,correct,True,5.0
14,21,408.80266666666665,8510,408.392,408.4,408.406,0.469732256643356,44.17403111464318,-0.4675018191337585,-44.16338348388672,-0.3760096132755279,-38.47848510742188,-0.0457213521003723,-0.9698371887207032,-0.060976356267929,-5.243014812469482,L,False,True,0,R,400,,0.318,RightResponse,correct,True,6.0
15,22,413.75666666666666,8515,413.547,413.554,413.559,0.5640686147523531,61.18994017654664,-0.5538888871669769,-60.51676940917969,-0.5411080121994019,-58.86788177490234,0.1066794395446777,9.051486015319824,0.1879876255989074,7.413221836090088,L,False,True,0,L,200,,0.292,RightResponse,incorrect,True,9.0
16,23,417.16266666666667,8525,417.099,417.105,417.11,0.3195828589367329,33.2678776633101,-0.2921419739723205,-31.43131256103516,-0.1956392079591751,-20.464746475219727,0.1295618414878845,10.900654792785645,0.1448142528533935,9.792855262756348,L,False,True,0,L,50,,0.233,RightResponse,incorrect,True,4.0
17,24,420.0266666666667,1482,420.017,420.022,420.026,0.2326775180345769,27.142215248738623,0.1981658935546875,22.749792098999023,0.2362935170531273,25.73128890991211,0.121938943862915,14.803607940673828,0.1778512746095657,21.272897720336918,L,False,True,0,L,0,,0.249,RightResponse,incorrect,True,4.0
18,25,426.1926666666667,1490,426.135,426.142,426.148,0.6122704116871178,71.2172993379003,0.5994907021522522,66.09197235107422,0.7419017255306244,70.35633087158203,0.1244425773620605,26.528379440307617,0.0101611614227294,3.2561652660369877,L,False,True,0,L,50,,0.227,LeftResponse,correct,True,7.0
19,27,433.3536666666667,1503,433.294,433.299,433.303,0.2244034549278606,24.652858902170127,0.2159660160541534,24.50693702697754,0.2540505230426788,22.356672286987305,0.0609556436538696,2.6783370971679688,0.0660558342933654,6.744153022766113,L,False,True,0,L,50,,0.292,RightResponse,incorrect,True,6.0
20,28,440.71066666666667,1510,440.291,440.293,440.296,0.1548401420570857,19.583770464687944,0.1168615818023681,14.203542709350586,0.0813001096248626,11.13257122039795,0.1015816926956176,13.482708930969238,0.0304833054542541,4.226102828979492,L,False,True,0,L,400,,0.39,RightResponse,incorrect,True,5.0
21,30,450.9146666666667,8584,450.859,450.864,450.87,0.2986154078677849,30.1668110154994,-0.2946896553039551,-29.699752807617188,-0.2769384682178497,-30.303930282592773,0.0482614636421203,5.287832260131836,0.0609716773033142,9.83851718902588,L,False,True,0,R,50,,0.262,RightResponse,correct,True,9.0
22,31,455.3736666666667,8592,455.359,455.364,455.37,0.3546364654456797,37.369560773028525,-0.3506034612655639,-36.70013046264648,-0.2184880375862121,-23.396398544311523,-0.0533313751220703,-7.0416259765625,0.2794274091720581,23.832618713378903,L,False,True,0,R,0,,0.35,LeftResponse,incorrect,True,7.0
23,32,459.04566666666665,12848,458.631,458.633,458.636,0.1510983232311507,19.90785540120182,-0.0685958862304687,-9.353981018066406,-0.0177855044603347,-2.748668670654297,-0.1346302628517151,-17.57343864440918,-0.1575229465961456,-21.988489151000977,L,False,True,0,R,400,,0.316,RightResponse,correct,True,8.0
24,33,461.7896666666667,12857,461.73,461.734,461.739,0.3986235409189661,45.946031153702506,0.3429823517799377,41.458133697509766,0.3734818398952484,39.79646301269531,-0.2031350135803222,-19.805578231811523,-0.162565529346466,-15.702336311340332,L,False,True,0,R,50,,0.258,RightResponse,correct,True,8.0
25,34,465.42466666666667,8616,465.411,465.416,465.421,0.2679640123677715,27.931362420548464,-0.2489952631294727,-25.56937599182129,-0.1549880439415574,-17.808618545532227,0.0990256071090698,11.241353034973145,0.0431912541389465,3.4414494037628174,L,False,True,0,L,0,,0.366,RightResponse,incorrect,True,10.0
26,35,468.5966666666667,8622,468.383,468.388,468.393,0.3019797168548636,34.33811222889145,-0.2972320914268493,-33.88043594360352,-0.1981803253293037,-23.883277893066406,0.0533369779586792,5.587666034698486,-0.0431926399469375,-2.2635726928710938,L,False,True,0,L,200,,0.304,RightResponse,incorrect,True,12.0
27,36,472.0316666666667,8635,471.923,471.928,471.932,0.2461628782049533,27.623424391399997,-0.2108833119273185,-24.48373794555664,-0.2591574490070343,-25.638500213623047,0.1269818544387817,12.790627479553224,0.0406485795974731,7.898826122283935,L,False,True,0,L,100,,0.237,RightResponse,incorrect,True,6.0
28,38,481.1616666666667,8662,480.947,480.952,480.956,0.2281332958513852,24.299305203569705,-0.1803796589374542,-18.269004821777344,-0.0965433120727539,-12.495192527770996,0.1396709680557251,16.0218505859375,0.1448009014129638,17.874841690063477,L,False,True,0,L,200,,0.34,LeftResponse,correct,True,14.0
29,39,486.16266666666667,8679,485.749,485.754,485.758,0.2665727236801989,31.28365141422382,-0.2464532852172851,-29.057024002075195,-0.15751513838768,-16.167221069335938,0.1015962362289428,11.591212272644045,0.1321080923080444,12.333171844482422,L,False,True,0,L,400,,0.309,LeftResponse,correct,True,7.0
30,40,871.0256666666667,13294,870.955,870.958,870.962,0.1940593201099821,23.221202737781816,-0.0482522249221801,-6.764517784118652,0.0076217055320739,2.2172226905822754,-0.1879647374153137,-22.21408462524414,-0.0254079438745975,0.5312560796737671,L,False,True,1,R,50,,0.399,RightResponse,correct,True,7.0
31,41,877.6706666666666,9171,877.261,877.266,877.271,0.3988138733742656,46.63712620532652,-0.3937308192253113,-46.623966217041016,-0.3531664805486798,-38.827449798583984,0.0634708404541015,1.1078424453735352,-0.0406519025564193,-3.048891067504883,L,False,True,1,L,400,,0.282,RightResponse,incorrect,True,6.0
32,43,885.6766666666666,2089,885.564,885.571,885.578,0.5310282960474902,47.583778044855926,0.5310222208499908,47.58196258544922,0.5614929646253586,56.21857833862305,0.002540111541748,0.4156555533409118,0.1067036688327789,13.280191421508787,L,False,True,1,L,100,,0.35,RightResponse,incorrect,True,9.0
33,44,888.7696666666667,9201,888.706,888.713,888.718,0.386956117679014,40.2668529254226,-0.3556801676750183,-37.06925964355469,-0.4217650191858411,-42.66147613525391,-0.1524029374122619,-15.725439071655272,-0.1143286824226379,-11.063310623168944,L,False,True,1,L,50,,0.238,LeftResponse,correct,True,6.0
34,45,892.9376666666667,9212,892.875,892.882,892.889,0.872856755421987,90.05423968187134,-0.8611884117126465,-88.54489135742188,-0.7062933146953583,-77.05082702636719,0.142244279384613,16.418535232543945,0.0635157525539398,5.566289901733398,L,False,True,1,L,50,,0.253,RightResponse,incorrect,True,5.0
35,46,897.0676666666667,9222,897.005,897.011,897.017,0.5876249539249974,63.28207907824973,-0.5868334472179413,-63.25642776489258,-0.4571689963340759,-48.34930419921875,-0.0304892063140869,-1.801632285118103,0.0076218247413635,-1.2241040468215942,L,False,True,1,L,50,,0.237,RightResponse,incorrect,True,8.0
36,47,900.0276666666666,9227,900.016,900.022,900.028,0.3851362889961407,45.66067767806053,-0.373487040400505,-45.3172492980957,-0.3252184349112212,-38.27316665649414,-0.0940074026584625,-5.589669227600098,-0.1753111630678177,-17.94688606262207,L,False,True,1,R,0,,0.257,RightResponse,correct,True,13.0
37,48,904.8326666666667,2127,904.72,904.726,904.736,0.5434230418160634,41.15481378253322,0.5208535492420197,40.72109603881836,0.5005161315202713,47.53403091430664,0.1549844592809677,5.959113597869873,0.1651391386985778,9.723617553710938,L,False,True,1,L,100,,0.369,LeftResponse,correct,True,12.0
38,49,911.2726666666666,9246,911.26,911.268,911.276,1.2405143244403702,121.42074802933398,-1.2342515587806702,-120.98099517822266,-1.1017130613327026,-103.344970703125,0.1244944930076599,10.324575424194336,0.101623922586441,2.6098945140838623,L,False,True,1,R,0,,0.398,LeftResponse,incorrect,True,12.0
39,50,914.5366666666666,9261,914.522,914.526,914.532,0.2534227822761502,25.88676643064374,-0.2286659181118011,-18.36268615722656,-0.2210405617952346,-20.441164016723636,0.1092474460601806,18.246545791625977,-0.0254060626029968,-7.483216762542725,L,False,True,1,L,0,,0.368,RightResponse,incorrect,True,15.0
40,51,921.9356666666666,9270,921.521,921.527,921.533,0.466369258495267,48.87342651323175,-0.4623657763004303,-48.245872497558594,-0.383569061756134,-42.74501419067383,0.0609768331050872,7.806894779205322,0.0762160420417785,4.6884050369262695,L,False,True,1,R,400,,0.34,RightResponse,correct,True,9.0
41,52,925.2536666666666,2162,925.191,925.196,925.2,0.3075884435604122,35.29421787299305,0.3048901557922363,35.20096969604492,0.2743318676948547,28.934246063232425,-0.0406527183949947,-2.5638930797576904,-0.0457325279712677,-5.24307918548584,L,False,True,1,R,50,,0.269,RightResponse,correct,True,11.0
42,53,929.5256666666667,2167,929.311,929.316,929.321,0.2454585252340049,29.75202281287101,0.1981816440820694,23.606258392333984,0.2819240093231201,26.83003807067871,0.1448237672448158,18.108766555786133,0.2413749247789383,24.99213409423828,L,False,True,1,L,200,,0.287,RightResponse,incorrect,True,13.0
43,54,932.9436666666667,9299,932.531,932.536,932.541,0.2860183056259979,30.34298986572257,-0.2718424499034881,-29.30907249450684,-0.1524087786674499,-20.62133026123047,-0.0889277998358011,-7.853362560272217,-0.0990882515907287,-7.853169441223144,L,False,True,1,R,400,,0.286,RightResponse,correct,True,8.0
44,55,938.7806666666667,9309,938.716,938.721,938.726,0.2748237873309972,31.10107563496105,-0.2591557502746582,-29.51885986328125,-0.2057024240493774,-23.22490692138672,-0.0914680883288383,-9.793560028076172,0.0686008185148239,0.6236434578895569,L,False,True,1,R,50,,0.275,RightResponse,correct,True,10.0
45,57,951.3376666666667,9328,951.122,951.127,951.133,0.3517520774004324,35.239249602123266,-0.3480622470378876,-35.19888687133789,-0.2716948986053467,-24.538232803344727,0.0508153140544891,1.6861422061920166,-0.0533566842786967,-5.751435279846191,L,False,True,1,L,200,,0.397,LeftResponse,correct,True,16.0
46,58,955.3086666666667,2203,955.198,955.202,955.205,0.1380683744193997,15.941819056015586,0.1346598416566848,15.590977668762209,0.2463817000389099,29.787517547607425,0.0304893925786018,3.326110363006592,0.0990903601050376,12.103347778320312,L,False,True,1,R,100,,0.287,LeftResponse,incorrect,True,11.0
47,59,958.6526666666666,9342,958.54,958.547,958.552,0.7933225875230288,85.28299086021538,-0.7189432382583618,-81.29399871826172,-0.6653768420219421,-74.22610473632812,0.3353823907673359,25.77739906311035,0.2769176959991455,12.95677375793457,L,False,True,1,L,100,,0.281,RightResponse,incorrect,True,14.0
48,60,964.0646666666667,2218,963.952,963.954,963.963,0.1937006253028363,14.090998575038444,0.1930999122560024,14.04360008239746,0.3174954056739807,31.21779060363769,-0.0152432322502136,-1.1547889709472656,0.2464563474059105,11.710681915283203,L,False,True,1,R,100,,0.283,RightResponse,correct,True,17.0
49,61,969.2856666666667,2228,969.075,969.08,969.086,0.3508939295557149,37.928535779485166,0.2337518483400344,25.615697860717773,0.2743106484413147,27.26973533630371,0.2616994902491569,27.971590042114254,0.193097673356533,21.6888427734375,L,False,True,1,L,200,,0.324,LeftResponse,correct,True,15.0
50,62,972.4036666666667,9368,971.989,971.996,972.001,0.4245342419563286,43.62504921671975,-0.4166759550571441,-42.522159576416016,-0.2641603350639343,-26.90081596374512,-0.0813048034906387,-9.74735164642334,-0.1930932104587555,-24.159698486328125,L,False,True,1,L,400,,0.275,RightResponse,incorrect,True,7.0
51,64,978.9656666666667,2245,978.95,978.956,978.961,0.3015311998769135,30.974820652347816,0.2820168733596802,29.01010513305664,0.3758646249771118,35.53180694580078,-0.1067124530673027,-10.856026649475098,-0.0558966994285583,-4.180712699890137,L,False,True,1,L,0,,0.251,RightResponse,incorrect,True,18.0
52,65,981.8466666666667,9391,981.635,981.638,981.642,0.1752190014476973,21.84011253342321,-0.1524436473846435,-18.316341400146484,-0.2031008005142212,-24.39531517028809,0.0863865315914154,11.895467758178713,0.0127039719372987,0.623649537563324,L,False,True,1,L,200,,0.227,RightResponse,incorrect,True,14.0
53,66,986.6596666666667,9398,986.447,986.453,986.458,0.4012456755610601,43.93269588590513,-0.3912674784660339,-43.60749435424805,-0.3072429895401001,-35.2485237121582,0.0889261066913604,5.335560321807861,0.0152446329593658,-2.8641388416290283,L,False,True,1,R,200,,0.381,RightResponse,correct,True,17.0
54,67,989.8026666666667,9410,989.742,989.748,989.755,0.7878296002391887,86.65765006735805,-0.7850550771690905,-85.48157501220703,-0.8302619457244873,-79.4971694946289,0.0660606147721409,14.228445053100586,-0.0050815790891647,3.303027868270874,L,False,True,1,L,50,,0.367,RightResponse,incorrect,True,9.0
55,68,993.2746666666667,9415,993.061,993.069,993.076,0.8464903433742366,86.1462556890064,-0.8307261615991592,-84.31954193115234,-0.6831184029579163,-77.94257354736328,0.1626036465167999,17.64630889892578,0.0635145008563995,7.806464672088623,L,False,True,1,R,200,,0.336,RightResponse,correct,True,16.0
56,69,996.8306666666667,9427,996.763,996.769,996.776,0.4398487391549865,46.38003439281481,-0.4344660565257072,-45.71030807495117,-0.3554457426071167,-32.245323181152344,0.068601450882852,7.853363990783691,0.1092540784738957,9.123751640319824,L,False,True,1,R,50,,0.348,RightResponse,correct,True,12.0
57,70,999.6446666666667,9432,999.535,999.541,999.546,0.3931285005367519,44.00541393407644,-0.3684093225747347,-41.04474258422852,-0.5052754878997803,-52.99674987792969,0.1372027294710278,15.868382453918455,0.0838460400700569,5.150877475738525,L,False,True,1,R,100,,0.208,RightResponse,correct,True,16.0
58,71,1003.9586666666667,2286,1003.744,1003.748,1003.752,0.2261864621963182,26.746105206824605,0.2185070784762501,25.199935913085938,0.1549062728881836,18.93055725097656,-0.0584377646446228,-8.961996078491211,0.0254078656435012,0.0461981743574142,L,False,True,1,R,200,,0.367,RightResponse,correct,True,15.0
59,72,1007.1846666666667,9449,1006.771,1006.775,1006.78,0.2461391654368677,26.93254592513451,-0.2439128756523132,-26.65488052368164,-0.2514411211013794,-28.561424255371094,-0.0330302566289901,-3.857379198074341,-0.0558972358703613,-5.081569671630859,L,False,True,1,R,400,,0.374,RightResponse,correct,True,10.0
60,73,1011.9516666666667,9461,1011.941,1011.948,1011.956,0.8896408497247975,88.17317658164808,-0.8815903812646866,-88.15918731689453,-0.8833280801773071,-71.72052764892578,0.1194120645523071,1.5705922842025757,0.1270385012030601,19.748760223388672,L,False,True,1,L,0,,0.281,LeftResponse,correct,True,21.0
61,74,1014.9576666666667,13502,1014.542,1014.545,1014.547,0.1613749211906261,20.87737720168932,-0.0889269858598709,-11.987820625305176,-0.0050805211067199,-5.011158466339111,-0.1346620079129934,-17.092601776123047,-0.0660495162010192,-8.152260780334473,L,False,True,1,L,400,,0.32,LeftResponse,correct,True,9.0
62,75,1018.4386666666667,9482,1018.027,1018.034,1018.04,0.4807385744776365,51.76625240245967,-0.4801944270730018,-50.0518684387207,-0.4290881156921386,-33.9981575012207,0.0228667706251144,13.211939811706545,0.0584377646446228,2.471466541290283,L,False,True,1,R,400,,0.272,RightResponse,correct,True,8.0
63,77,1028.6266666666666,2331,1028.613,1028.617,1028.622,0.2411063124623989,29.024608048995542,0.238833338022232,28.572237014770508,0.3225049972534179,33.88913345336914,-0.03302863240242,-5.104423999786377,-0.0025407671928405,2.2174057960510254,L,False,True,1,R,0,,0.293,RightResponse,correct,True,20.0
64,78,1031.2946666666667,2336,1031.182,1031.187,1031.191,0.3262706790611605,36.17601130660398,0.3074346929788589,33.49213409423828,0.2158908247947693,22.58220863342285,0.1092541329562664,13.674090385437012,0.0431915521621704,0.4388414621353149,L,False,True,1,L,100,,0.251,LeftResponse,correct,True,15.0
65,79,1034.8546666666666,2341,1034.643,1034.648,1034.654,0.3668062828922953,39.9821876037424,0.3531685546040535,38.619895935058594,0.3910599946975708,34.1423454284668,0.099089965224266,10.347896575927734,0.0279487110674381,3.9497785568237305,L,False,True,1,R,200,,0.387,RightResponse,correct,True,14.0
66,81,1170.6396666666665,9701,1170.527,1170.533,1170.539,0.3616851275663909,36.74889633041501,-0.3303020596504211,-34.30060577392578,-0.3175925016403198,-31.874818801879883,0.1473658063914626,13.189003944396973,0.1727735528256744,10.140039443969728,L,False,True,2,R,100,,0.242,RightResponse,correct,True,17.0
67,82,1175.6726666666666,2564,1175.462,1175.469,1175.474,0.3529630207200038,37.99189876118312,0.3506141155958175,37.6251220703125,0.6224213242530823,57.59931182861328,0.0406526252627372,5.266361236572266,-0.0127032697200775,3.487625360488892,L,False,True,2,R,200,,0.313,RightResponse,correct,True,13.0
68,83,1178.9456666666665,9712,1178.532,1178.537,1178.543,0.3533883524562339,40.06265183502278,-0.3480875790119171,-39.56696701049805,-0.2692997455596924,-34.92130661010742,0.0609783977270126,6.2826104164123535,0.0076220035552978,2.7485384941101074,L,False,True,2,L,400,,0.244,RightResponse,incorrect,True,7.0
69,84,1181.5226666666665,2577,1181.463,1181.468,1181.473,0.4765700913665691,53.161607586478766,0.3683868646621704,44.668251037597656,0.4014438390731811,43.35506057739258,0.3023411482572555,28.825403213500977,0.3887396454811096,39.49766159057617,L,False,True,2,L,50,,0.227,LeftResponse,correct,True,11.0
70,85,1186.9686666666666,9721,1186.858,1186.863,1186.869,0.3082835861483626,33.10444859247345,-0.2820275947451591,-30.67427062988281,-0.2693227902054786,-29.21898651123047,0.1244958043098449,12.449644088745115,0.1549877449870109,9.932137489318848,L,False,True,2,R,100,,0.228,RightResponse,correct,True,16.0
71,86,1191.2146666666665,9725,1191.152,1191.157,1191.162,0.2477614498705627,26.322764027852,-0.2464552372694015,-25.962114334106445,-0.2134256870485842,-22.982534408569336,0.0254077166318893,4.342410087585449,0.038111388683319,1.5244553089141846,L,False,True,2,L,50,,0.206,LeftResponse,correct,True,10.0
72,88,1198.3386666666665,9734,1197.925,1197.932,1197.938,0.4575849609935478,48.73087706236012,-0.4573309458792209,-48.48188400268555,-0.2464547827839851,-32.1984748840332,-0.0152447521686553,4.919888496398926,0.0889244973659515,10.185905456542969,L,False,True,2,L,400,,0.388,RightResponse,incorrect,True,10.0
73,89,1203.6806666666666,9744,1203.272,1203.278,1203.283,0.3662900671144169,40.78832516102882,-0.3658581227064132,-40.72024154663086,-0.2972598075866699,-24.6676025390625,0.0177833437919616,2.3557159900665283,0.1244965344667434,13.881760597229004,L,False,True,2,L,400,,0.352,LeftResponse,correct,True,13.0
74,90,1208.0516666666665,9748,1207.841,1207.847,1207.853,0.4835360933582768,58.11776846467668,-0.4827276915311813,-58.089115142822266,-0.396357333753258,-48.805641174316406,0.0279486924409866,-1.8247501850128172,0.1651471555233001,15.544660568237305,L,False,True,2,L,200,,0.325,LeftResponse,correct,True,12.0
75,91,1212.7936666666665,9752,1212.58,1212.587,1212.593,0.5974917733128349,61.47777643692202,-0.5742138475179672,-58.57646179199219,-0.4243036694824695,-43.86236953735352,0.1651510717347264,18.6632022857666,0.1219573840498924,15.498759269714355,L,False,True,2,R,200,,0.342,RightResponse,correct,True,11.0
76,92,1216.2446666666665,2620,1215.834,1215.839,1215.844,0.3176838175382616,32.151183825567955,0.3175923600792885,32.105716705322266,0.4014427587389946,41.48403549194336,0.0076223844662308,-1.7092618942260742,-0.0330302566289901,-2.679378032684326,L,False,True,2,L,400,,0.279,LeftResponse,correct,True,12.0
77,93,1219.4426666666666,9761,1219.233,1219.237,1219.241,0.2215711251061343,24.14327723051129,-0.198179505765438,-21.7581729888916,-0.2235837429761886,-25.68437385559082,0.0990890860557556,10.4632568359375,0.1143346279859542,12.819337844848633,L,False,True,2,R,200,,0.366,RightResponse,correct,True,10.0
78,94,1221.9736666666665,9767,1221.96,1221.967,1221.974,0.6139991093475007,60.23624521757436,-0.599616527557373,-59.24574279785156,-0.4954387135803699,-52.40826034545898,-0.1321170926094055,-10.87874984741211,-0.0355700552463531,-14.99021053314209,L,False,True,2,L,0,,0.218,LeftResponse,correct,True,19.0
79,95,1225.3836666666666,9771,1225.372,1225.376,1225.38,0.2007210138181992,26.09895309024279,-0.2007049322128296,-26.09858512878418,-0.1829350069165229,-22.173961639404297,0.0025407820940017,0.1385881751775741,0.0965488851070404,10.44021701812744,L,False,True,2,L,0,,0.358,RightResponse,incorrect,True,18.0
80,96,1229.9426666666666,9780,1229.829,1229.834,1229.839,0.3639977660826973,38.86399412601549,-0.3328369855880737,-35.362548828125,-0.2286699879914522,-27.324934005737305,0.1473564207553863,16.12141990661621,0.1067132651805877,7.945748329162598,L,False,True,2,R,100,,0.296,RightResponse,correct,True,15.0
81,97,1235.2096666666666,9787,1234.801,1234.809,1234.817,1.061302069340314,108.31518662668208,-1.0467230379581451,-105.87409210205078,-1.1051750779151917,-101.92658233642578,0.1753081977367401,22.866050720214844,0.2134263180196285,23.536964416503903,L,False,True,2,R,400,,0.377,RightResponse,correct,True,11.0
82,98,1238.0826666666665,9794,1237.97,1237.977,1237.981,0.4730770080968451,50.56022870626696,-0.3175891935825348,-33.32974624633789,-0.3811161816120147,-35.84791946411133,0.3506265245378017,38.01926803588867,0.3887330219149589,31.020320892333984,L,False,True,2,L,100,,0.268,RightResponse,incorrect,True,14.0
83,100,1246.5966666666666,9803,1246.384,1246.391,1246.396,0.51455845707811,53.60348514003803,-0.4979769065976143,-53.23949813842773,-0.3531622290611267,-41.39096450805664,0.1295739412307739,6.236141204833984,0.1702327451203018,19.379268646240234,L,False,True,2,L,200,,0.353,LeftResponse,correct,True,9.0
84,101,1251.9586666666667,9808,1251.844,1251.854,1251.862,0.8160073488359763,65.7843375462612,-0.7952420860528946,-63.38034439086914,-0.586770236492157,-57.70709609985352,0.1829153299331665,17.621322631835938,0.1397375762462616,5.150724411010742,L,False,True,2,L,100,,0.349,RightResponse,incorrect,True,17.0
85,102,1254.9476666666665,9814,1254.881,1254.886,1254.891,0.244322428468333,28.389843548481767,-0.2337367236614227,-26.907434463500977,-0.0889274179935455,-11.941679000854492,0.0711378455162048,9.05390453338623,0.0406520366668701,3.326079130172729,L,False,True,2,R,50,,0.247,LeftResponse,incorrect,True,9.0
86,103,1258.8406666666665,9822,1258.78,1258.783,1258.788,0.1526226576486662,18.81992281456394,-0.1524322032928466,-18.453502655029297,-0.19309953879565,-21.66597366333008,0.0076222717761993,3.695637226104736,0.1041639149188995,10.554937362670898,L,False,True,2,R,50,,0.366,RightResponse,correct,True,12.0
87,104,1262.0336666666665,9828,1261.82,1261.827,1261.834,0.6927526116475277,68.55785258764001,-0.6859918609261513,-68.16077423095703,-0.6377156209200621,-68.46052551269531,-0.0965471267700195,-7.368039608001709,-0.060978777706623,-9.169904708862305,L,False,True,2,R,200,,0.32,LeftResponse,incorrect,True,8.0
88,105,1265.3566666666666,6135,1265.346,1265.35,1265.355,0.2490039862008386,27.49503206779468,-0.1473635137081146,-18.362716674804688,-0.1219571679830551,-18.824769973754883,0.2007161676883697,20.464296340942383,0.3125150399282574,32.152313232421875,L,False,True,2,L,0,,0.222,RightResponse,incorrect,True,20.0
89,107,1276.3606666666665,13777,1275.941,1275.95,1275.952,0.3053555342012392,29.51676639156297,0.0889204144477844,23.950897216796875,0.1397403627634048,17.923768997192383,-0.2921218276023865,-17.250913619995117,-0.1626005172729492,-13.973612785339355,L,False,True,2,R,400,,0.245,RightResponse,correct,True,10.0
90,108,1279.8406666666665,9854,1279.83,1279.836,1279.842,0.4185952107471452,43.96851626155424,-0.4090420603752136,-42.93676376342773,-0.3709541633725166,-45.15665435791016,0.0889187455177307,9.469146728515623,0.0787642374634742,5.127758502960205,L,False,True,2,R,0,,0.237,RightResponse,correct,True,23.0
91,109,1282.8296666666665,9860,1282.768,1282.775,1282.782,0.741228601191159,76.97546203795966,-0.7342300266027451,-76.67949676513672,-0.6503706574440002,-61.45818328857422,-0.1016174554824829,-6.743628978729248,-0.0076222419738769,3.5108449459075928,L,False,True,2,L,50,,0.313,LeftResponse,correct,True,11.0
92,110,1286.7316666666666,9862,1286.522,1286.528,1286.535,0.62798066695399,64.53142597697355,-0.6275643110275269,-64.25788116455078,-0.4649535045027733,-47.78901290893555,0.0228638052940368,5.9354567527771,0.0457330048084259,-0.9239056706428528,L,False,True,2,L,200,,0.386,RightResponse,incorrect,True,11.0
93,111,1291.6106666666665,6151,1291.591,1291.596,1291.602,0.2667808150752641,24.439885196890057,0.0635120272636413,5.311877727508545,-0.0127036571502685,3.487767219543457,0.2591104507446289,23.855648040771484,0.2134113609790802,21.68748664855957,L,False,True,2,R,0,,0.278,LeftResponse,incorrect,True,22.0
94,112,1295.7736666666665,9879,1295.562,1295.568,1295.574,0.4838034664185237,54.11572599040129,-0.4624101631343364,-51.34574890136719,-0.4039776399731636,-41.206172943115234,0.1422766149044037,17.091690063476562,0.1041724937967956,8.084341049194336,L,False,True,2,L,200,,0.34,LeftResponse,correct,True,14.0
95,113,1299.8296666666665,9886,1299.77,1299.777,1299.783,0.7579766226277747,87.79856472445793,-0.7368186116218567,-84.46874237060547,-0.6605342328548431,-67.90071105957031,0.1778395175933838,23.95035552978516,0.129580280277878,12.195788383483888,L,False,True,2,L,50,,0.275,LeftResponse,correct,True,10.0
96,114,1304.1926666666666,9891,1304.128,1304.133,1304.137,0.2149132927379374,24.02235274748292,-0.1879894733428955,-22.424854278564453,-0.1270332336425781,-14.87442398071289,0.1041522026062011,8.613903999328613,0.063517540693283,9.469901084899902,L,False,True,2,R,50,,0.372,RightResponse,correct,True,9.0
97,115,1307.1066666666666,9900,1307.093,1307.101,1307.107,0.5301258962825474,51.69859835331992,-0.5106765702366829,-51.20681381225586,-0.4598592668771744,-47.30231094360352,-0.1422775685787201,-7.113880157470703,-0.0508158057928085,-2.194316864013672,L,False,True,2,R,0,,0.245,RightResponse,correct,True,25.0
98,116,1310.0916666666665,9907,1309.979,1309.988,1309.994,0.8361185357034013,85.26021374232818,-0.8358714729547501,-85.25142669677734,-0.6630595922470093,-67.89952850341797,0.0203245282173156,-1.2240480184555054,0.0,-0.9700990319252014,L,False,True,2,R,100,,0.258,RightResponse,correct,True,20.0
99,117,1313.5936666666666,9913,1313.18,1313.186,1313.192,0.3481596719327928,34.29117105934411,-0.3379149436950683,-33.35261154174805,-0.3175708949565887,-33.51259994506836,-0.0838370323181152,-7.967917919158935,-0.0609767138957977,-2.9795384407043457,L,False,True,2,R,400,,0.231,RightResponse,correct,True,9.0
100,118,1316.6286666666665,13830,1316.215,1316.221,1316.226,0.2723742000998869,26.79710548449076,-0.0914584994316101,-10.370050430297852,-0.1092490851879119,-11.594654083251951,-0.2565600275993347,-24.709247589111328,-0.3251902461051941,-29.609397888183597,L,False,True,2,R,400,,0.315,RightResponse,correct,True,8.0
101,119,1320.5006666666666,9933,1320.436,1320.443,1320.45,0.6128013282430752,60.06713798765308,-0.6097598522901535,-60.05219650268555,-0.4369707405567169,-43.23591613769531,0.0609786063432693,-1.3396869897842407,0.0711421994492411,0.4619625806808471,L,False,True,2,R,50,,0.264,RightResponse,correct,True,8.0
102,121,1415.7336666666665,10028,1415.722,1415.728,1415.734,0.4475944097200567,50.85605459532909,-0.4217625819146633,-49.54434967041016,-0.3099350333213806,-34.85041427612305,0.1498568654060363,11.475874900817873,0.1067112982273101,5.705117225646973,L,False,True,3,R,0,,0.286,RightResponse,correct,True,24.0
103,122,1419.8136666666664,10034,1419.7,1419.706,1419.712,0.4396674799801541,46.80264873571921,-0.4395500551909208,-46.79606246948242,-0.2489848136901855,-26.584383010864254,0.0101608037948608,0.7851535081863403,-0.0228667855262756,-3.741834402084351,L,False,True,3,L,100,,0.365,LeftResponse,correct,True,18.0
104,123,1425.3346666666666,10038,1424.92,1424.926,1424.931,0.2940717194009501,30.48395743070267,-0.2896480879280716,-30.466232299804688,-0.1524471528828144,-18.73251724243164,0.0508149713277816,1.0393989086151123,0.1041720360517501,3.8342671394348153,L,False,True,3,R,400,,0.311,RightResponse,correct,True,7.0
105,124,1428.5856666666666,10047,1428.526,1428.535,1428.542,0.9191723726929046,88.17487110932903,-0.914610409643501,-87.83676147460938,-0.650410033762455,-62.431976318359375,-0.0914639234542846,-7.714352130889893,0.0838462188839912,4.088368892669678,L,False,True,3,L,50,,0.322,LeftResponse,correct,True,7.0
106,125,1433.7066666666665,10049,1433.696,1433.703,1433.71,0.7628990933749312,82.32362747709773,-0.7495149970054626,-81.32674407958984,-0.6453448459506035,-70.84010314941406,0.1422754228115081,12.772640228271484,0.1117912828922271,13.003864288330078,L,False,True,3,L,0,,0.324,RightResponse,incorrect,True,23.0
107,126,1437.3126666666665,10058,1437.249,1437.254,1437.26,0.3084366386077209,35.9432743055476,-0.3023488000035286,-34.92375564575195,-0.2362854331731796,-23.882511138916016,0.0609783828258514,8.500015258789062,0.0584344565868377,5.104329586029053,L,False,True,3,R,50,,0.362,RightResponse,correct,True,6.0
108,127,1442.0926666666667,10063,1441.671,1441.675,1441.68,0.1953666598780379,21.189899838321303,-0.1905320286750793,-20.669832229614254,-0.1067132833413779,-11.50286102294922,0.0431934930384159,4.665821552276611,0.0838422179222107,5.497085094451904,L,False,True,3,R,400,,0.288,LeftResponse,incorrect,True,6.0
109,128,1445.1186666666665,10076,1445.005,1445.01,1445.014,0.3115917935372645,34.59484903199448,-0.2642250061035156,-29.448251724243164,-0.1321197003126144,-17.78533363342285,-0.1651502102613449,-18.155000686645508,-0.1321168839931488,-13.835333824157717,L,False,True,3,L,100,,0.303,LeftResponse,correct,True,17.0
110,129,1448.1496666666665,10080,1448.137,1448.142,1448.147,0.2379954679124294,26.053264061734367,-0.2286442518234253,-22.77204322814941,-0.1625950336456298,-16.72142219543457,0.0660579204559326,12.657275199890137,0.0177851617336273,2.217365264892578,L,False,True,3,L,0,,0.275,LeftResponse,correct,True,26.0
111,130,1453.0746666666666,2923,1452.963,1452.968,1452.974,0.2285003508716698,24.05126500711768,0.2261005043983459,23.55706787109375,0.2134248055517673,22.7745304107666,0.0330298691987991,4.85055685043335,-0.0152447633445262,2.748677492141724,L,False,True,3,L,100,,0.397,LeftResponse,correct,True,16.0
112,131,1456.7386666666666,10093,1456.327,1456.335,1456.341,0.5896326108205481,60.96375890519177,-0.5894355177879333,-60.65337753295898,-0.4370144456624985,-56.42843627929688,-0.0152442157268524,-6.143915176391602,0.0736746191978454,2.840748786926269,L,False,True,3,L,400,,0.396,RightResponse,incorrect,True,9.0
113,132,1460.0066666666667,10098,1459.995,1460.004,1460.01,0.9000879052634673,86.41112874979578,-0.8993847519159317,-86.40643310546875,-0.7469214498996735,-72.89083862304688,-0.0355711290612816,0.9008272886276244,0.1321206092834472,10.971542358398438,L,False,True,3,L,0,,0.383,LeftResponse,correct,True,25.0
114,133,1463.0506666666665,10104,1462.99,1462.996,1463.002,0.4793177939131284,55.59962770763064,-0.4775909185409546,-55.58857345581055,-0.4395436495542526,-45.57134246826172,-0.0406504869461059,-1.1086488962173462,0.0025407075881958,2.887157678604126,L,False,True,3,R,50,,0.23,RightResponse,correct,True,5.0
115,134,1466.3766666666666,10112,1466.164,1466.173,1466.18,0.9630405162224148,91.43017698080688,-0.9629198610782624,-91.4200210571289,-0.6301104724407196,-63.19607162475586,-0.0152439177036285,1.3627225160598757,0.0127030313014984,5.797148704528809,L,False,True,3,L,200,,0.242,LeftResponse,correct,True,13.0
116,135,1470.4866666666665,10118,1470.272,1470.278,1470.283,0.273283718747816,28.95461380409804,-0.2566053569316864,-28.73241806030273,-0.2439020872116089,-24.505651473999023,0.094008944928646,3.580197334289551,0.1270396932959556,10.994709014892578,L,False,True,3,R,200,,0.315,RightResponse,correct,True,12.0
117,136,1473.9546666666665,10127,1473.744,1473.751,1473.757,0.4812464247246671,51.92901741135503,-0.4674672782421112,-51.7820930480957,-0.3125117644667625,-33.39915084838867,-0.1143348813056945,-3.903548240661621,-0.0685939192771911,-13.418659210205078,L,False,True,3,L,200,,0.299,RightResponse,incorrect,True,11.0
118,137,1478.4296666666667,10133,1478.37,1478.375,1478.38,0.4440334001740694,53.12327348617766,-0.4090420603752136,-49.95824813842773,-0.1905480623245239,-20.0941219329834,0.1727722585201263,18.06254768371582,0.1956405704841017,16.51512908935547,L,False,True,3,L,50,,0.384,LeftResponse,correct,True,4.0
119,138,1484.9336666666666,10140,1484.921,1484.927,1484.932,0.4610027604165138,50.54472171686173,-0.45728400349617,-50.32461166381836,-0.1854752004146576,-17.7852783203125,-0.0584370195865631,-4.711937427520752,-0.055896371603012,-2.633136034011841,L,False,True,3,R,0,,0.299,RightResponse,correct,True,24.0
120,139,1491.9696666666666,6305,1491.861,1491.867,1491.87,0.582990945009342,65.55632762351341,-0.5157216787338257,-60.6719856262207,-0.4700284302234649,-52.93868255615234,0.2718631862662732,24.83026885986328,0.1397436559200287,16.97711944580078,L,False,True,3,L,100,,0.326,LeftResponse,correct,True,15.0
121,140,1495.3746666666666,2992,1495.266,1495.272,1495.278,0.3967992998128499,43.85391751678005,0.3759132027626037,42.67099380493164,0.4547999054193496,46.49639129638672,0.1270391605794429,10.116934776306152,0.0736819058656692,5.658939361572266,L,False,True,3,R,100,,0.391,LeftResponse,incorrect,True,14.0
122,141,1498.8846666666666,10162,1498.824,1498.829,1498.834,0.4011288788594337,43.29495843562401,-0.376000165939331,-42.034446716308594,-0.3175984770059585,-36.14850616455078,0.1397435246035456,10.371051788330078,0.0711398422718048,5.912918567657471,L,False,True,3,R,50,,0.38,RightResponse,correct,True,3.0
123,142,1502.4316666666666,10171,1502.373,1502.378,1502.383,0.291085592715696,29.870270753040387,-0.2870547771453857,-29.83702278137207,-0.2667796015739441,-29.334152221679688,0.0482739806175231,1.408952236175537,0.1905484199523925,14.620201110839844,L,False,True,3,R,50,,0.392,RightResponse,correct,True,2.0
124,143,1507.5736666666667,3011,1507.165,1507.17,1507.176,0.4325089029808647,57.13767584354842,0.4317619800567627,57.00575637817383,0.7241167724132538,78.30191802978516,0.0254075527191162,3.880430459976196,0.0177855645306408,8.777290344238281,L,False,True,3,R,400,,0.257,RightResponse,correct,True,12.0
125,144,1510.9876666666667,10185,1510.875,1510.883,1510.89,0.7608657797713069,69.59831228844978,-0.7570381462574005,-69.53839874267578,-0.5488073378801346,-51.6472053527832,-0.076223224401474,-2.8872432708740234,-0.0152444839477539,-2.148082971572876,L,False,True,3,R,100,,0.384,RightResponse,correct,True,17.0
126,145,1513.8646666666666,10188,1513.643,1513.648,1513.651,0.2190117708085366,23.14157273054621,-0.172721266746521,-17.9188232421875,-0.1295767873525619,-12.934553146362305,0.1346607580780983,14.644048690795898,0.1117948186583817,9.793590545654297,L,False,True,3,R,200,,0.207,RightResponse,correct,True,14.0
127,146,1517.2996666666666,10196,1517.287,1517.293,1517.297,0.4365374145108424,41.8100594825061,-0.2794413566589355,-28.68343162536621,-0.2413520812988281,-21.0401611328125,0.3353765681385994,30.419431686401367,0.0355710908770561,5.635939121246338,L,False,True,3,R,0,,0.329,RightResponse,correct,True,23.0
128,147,1522.6786666666665,3040,1522.269,1522.277,1522.283,0.4174449920822688,38.03134275008004,0.4089385271072387,37.91444778442383,0.5233956500887871,55.61963272094727,0.0838427245616912,2.979543685913086,-0.0254075080156326,-8.52306842803955,L,False,True,3,L,400,,0.284,LeftResponse,correct,True,11.0
129,149,1529.5316666666665,6348,1529.11,1529.115,1529.119,0.4388053612873037,50.20033113764034,-0.3988566696643829,-45.56697845458984,-0.327757891267538,-37.71872329711914,0.1829303205013275,21.06475067138672,0.0076220333576202,-0.3002576529979706,L,False,True,3,L,400,,0.255,LeftResponse,correct,True,10.0
130,151,1535.8676666666665,3068,1535.755,1535.762,1535.767,0.508456698780108,51.9426449267475,0.3531204462051391,37.89825439453125,0.4039579629898071,38.43296432495117,0.3658335208892822,35.521270751953125,0.1702310815453529,15.198412895202637,L,False,True,3,R,100,,0.243,RightResponse,correct,True,16.0
131,152,1541.0936666666666,3075,1541.03,1541.034,1541.038,0.2153123205956003,22.343336951011374,0.2032222151756286,21.06121635437012,0.1092506051063537,13.442676544189451,-0.0711345672607421,-7.459884166717529,-0.0330294966697692,-3.233654022216797,L,False,True,3,L,50,,0.203,LeftResponse,correct,True,4.0
132,153,1543.7906666666665,3081,1543.582,1543.589,1543.595,0.6379528224921478,67.21967007255334,0.6350321769714355,67.17422485351562,0.6504281163215637,60.81639099121094,0.060974895954132,-2.47134780883789,0.1295765340328216,8.56911563873291,L,False,True,3,R,200,,0.246,RightResponse,correct,True,12.0
133,154,1547.5136666666665,10264,1547.102,1547.109,1547.114,0.4230406817512512,43.43436178813835,-0.4165745973587036,-42.88178634643555,-0.2616983279585838,-24.25261688232422,-0.0736819058656692,-6.906242370605469,-0.1194151788949966,-14.597719192504885,L,False,True,3,R,400,,0.238,LeftResponse,incorrect,True,9.0
134,156,1555.0776666666666,10280,1555.063,1555.07,1555.075,0.4634717041029517,48.3345885325516,-0.4597728848457336,-48.33317565917969,-0.4115989096462726,-41.06763458251953,0.0584372729063034,0.3695663809776306,0.027948684990406,-5.058483600616455,L,False,True,3,L,0,,0.264,LeftResponse,correct,True,22.0
135,157,1558.9206666666666,10287,1558.509,1558.514,1558.517,0.2633897138794371,28.65256976388048,-0.2616192698478699,-27.755434036254883,-0.2947115302085876,-34.159698486328125,-0.0304876863956451,-7.113763809204102,-0.0533554553985595,-4.480954647064209,L,False,True,3,L,400,,0.233,LeftResponse,correct,True,12.0
136,158,1562.7136666666665,10289,1562.499,1562.504,1562.511,0.3679621655133813,36.13025994639565,-0.3480472564697265,-33.78850555419922,-0.2464357018470764,-25.521379470825195,0.1194121539592742,12.79580307006836,0.1575227677822113,12.680380821228027,L,False,True,3,L,200,,0.202,RightResponse,incorrect,True,10.0
137,159,1565.6826666666666,10294,1565.669,1565.675,1565.68,0.4048960206005446,42.16909473829273,-0.4013651609420776,-42.05364990234375,-0.3963331282138824,-45.66144180297852,0.0533553659915924,3.118185520172119,0.1905517280101776,13.46572494506836,L,False,True,3,R,0,,0.363,RightResponse,correct,True,21.0
138,161,1664.5666666666666,10461,1664.456,1664.462,1664.468,0.4677313252295935,50.69010426097921,-0.4596855044364929,-50.12428665161133,-0.6020656824111938,-61.06159210205078,-0.0863818824291229,-7.552652359008789,-0.1702201962471008,-18.73126602172852,L,False,True,4,R,100,,0.276,RightResponse,correct,True,14.0
139,162,1669.6126666666667,10477,1669.398,1669.407,1669.413,0.7285195997349527,65.00897748255761,-0.7083536386489868,-62.68404006958008,-0.5612637996673584,-53.95491409301758,0.1702231764793396,17.23015594482422,0.0508078932762146,4.965255737304688,L,False,True,4,L,200,,0.317,LeftResponse,correct,True,13.0
140,163,1672.5226666666665,10488,1672.308,1672.315,1672.322,0.6735116698654197,69.12578417779099,-0.6554367542266846,-67.34458923339844,-0.7062776237726212,-68.82658386230469,-0.1549859046936035,-15.591033935546877,-0.2083320021629333,-17.668973922729492,L,False,True,4,L,200,,0.371,RightResponse,incorrect,True,12.0
141,164,1675.0956666666666,10504,1675.085,1675.093,1675.099,0.6874849474250208,71.21751883356647,-0.6857885122299194,-71.11673736572266,-0.7746283411979675,-75.06034851074219,-0.0482666492462158,-3.787433862686157,-0.1422457098960876,-17.59602928161621,L,False,True,4,R,0,,0.204,RightResponse,correct,True,20.0
142,166,1681.9566666666665,3330,1681.947,1681.953,1681.961,0.5969899134400775,58.73985675641317,0.5968547463417053,58.73854446411133,0.660342276096344,60.56202697753906,-0.0127030909061431,-0.3926397860050201,0.035567283630371,2.771489143371582,L,False,True,4,L,0,,0.264,LeftResponse,correct,True,19.0
143,168,1692.8316666666665,10536,1692.615,1692.623,1692.628,0.5769128042231124,66.0709814285411,-0.5741985887289047,-65.96624755859375,-0.4290450811386108,-49.01817321777344,0.0558960139751434,3.718705415725708,-0.0228586196899414,0.0692709162831306,L,False,True,4,R,200,,0.339,RightResponse,correct,True,15.0
144,169,1696.7996666666666,10551,1696.735,1696.744,1696.75,0.6386180186894447,61.394697768102056,-0.6351920962333679,-60.770694732666016,-0.4136523008346557,-48.60763931274414,0.0660603865981102,8.731069564819336,0.0990546941757202,7.527133941650391,L,False,True,4,L,50,,0.362,RightResponse,incorrect,True,3.0
145,170,1700.2716666666665,10566,1700.26,1700.269,1700.276,0.8968878307921933,78.1322449380621,-0.8942603766918182,-77.04633331298828,-0.9954811930656432,-104.13987731933594,0.0686014555394649,12.981148719787598,-0.0330184698104858,-4.594886302947998,L,False,True,4,R,0,,0.317,RightResponse,correct,True,18.0
146,171,1703.9186666666665,10585,1703.505,1703.51,1703.516,0.4561308437585826,49.401048078797885,-0.4547419846057892,-49.40078353881836,-0.4672337770462036,-49.16974639892578,-0.0355678796768188,0.16166952252388,-0.050805926322937,-4.5032734870910645,L,False,True,4,R,400,,0.299,RightResponse,correct,True,10.0
147,174,1715.5636666666664,3420,1715.501,1715.506,1715.512,0.3274446670885196,34.37830470387997,0.3048931732773781,31.85213661193848,0.675575852394104,70.3277359008789,-0.1194159239530563,-12.934806823730469,-0.0304869413375854,-0.3464422821998596,L,False,True,4,L,50,,0.348,LeftResponse,correct,True,5.0
148,175,1719.4196666666667,10618,1719.355,1719.364,1719.37,0.7830855564648007,73.34483842183779,-0.7824917808175087,-72.33543395996094,-0.3732540607452392,-37.69292831420898,0.03048937022686,12.12643051147461,0.1752629876136779,14.916982650756836,L,False,True,4,R,50,,0.299,RightResponse,correct,True,4.0
149,176,1723.9326666666666,10640,1723.511,1723.516,1723.519,0.1915088773357952,21.748869641326188,-0.1778055429458618,-20.52837371826172,-0.1651076674461364,-17.295833587646484,0.0711395740509033,7.183258533477783,-0.0203213691711425,-2.0783259868621826,L,False,True,4,L,400,,0.213,LeftResponse,correct,True,9.0
150,177,1726.4516666666666,10651,1726.39,1726.396,1726.402,0.4954469334472636,54.25466566268092,-0.4954208731651306,-54.230567932128906,-0.5154818296432495,-54.455657958984375,0.0050815641880035,1.6168636083602903,-0.0076214671134948,-3.4181087017059326,L,False,True,4,R,50,,0.217,RightResponse,correct,True,3.0
151,179,1734.2496666666666,3468,1734.139,1734.144,1734.149,0.4322293372399026,46.6159101722148,0.4115417599678039,45.42645263671875,0.4395177960395813,49.01010513305664,0.1321195662021637,10.463292121887209,0.0990737676620483,10.299943923950195,L,False,True,4,R,100,,0.371,RightResponse,correct,True,12.0
152,180,1738.1916666666666,10680,1738.18,1738.187,1738.193,0.961857568691654,98.55658692387962,-0.957738310098648,-98.4774169921875,-0.670561671257019,-72.66873168945312,-0.0889230668544769,-3.949578285217285,0.0431840419769287,3.3715662956237797,L,False,True,4,L,0,,0.277,LeftResponse,correct,True,17.0
153,181,1741.2896666666666,10702,1741.075,1741.081,1741.087,0.4280306781077421,46.225267489337774,-0.4192225504666567,-45.225341796875,-0.3656238317489624,-45.77249526977539,0.0863870047032833,9.562625885009766,0.0076203346252441,-2.3091721534729004,L,False,True,4,L,200,,0.349,LeftResponse,correct,True,14.0
154,182,1746.6686666666665,10719,1746.658,1746.665,1746.672,0.9631489761790892,98.07312198680194,-0.9374412223696708,-96.76953887939452,-0.8425207138061523,-81.5053939819336,0.2210427671670913,15.937176704406738,0.2057922780513763,13.765697479248049,L,False,True,4,L,0,,0.387,RightResponse,incorrect,True,16.0
155,183,1749.6746666666666,10731,1749.662,1749.669,1749.675,0.5990772411426024,60.65629517622218,-0.5945287570357323,-60.42320251464844,-0.6474930047988892,-67.07917022705078,-0.0736824125051498,-5.3125081062316895,-0.121945321559906,-10.000450134277344,L,False,True,4,R,0,,0.285,LeftResponse,incorrect,True,19.0
156,184,1755.3246666666666,3546,1754.911,1754.915,1754.919,0.1968870803107258,21.329163847645667,0.1880150288343429,20.302854537963867,0.2259538173675537,26.796443939208984,0.0584369003772735,6.536614418029785,0.0838304162025451,10.461465835571287,L,False,True,4,R,400,,0.386,RightResponse,correct,True,8.0
157,185,1758.6216666666667,10765,1758.209,1758.213,1758.217,0.2547818153673007,31.335417624004812,-0.251517653465271,-31.179880142211918,-0.1777824163436889,-24.61234664916992,0.0406527174636721,3.118248224258423,0.0355659127235412,0.8545102477073669,L,False,True,4,L,400,,0.269,LeftResponse,correct,True,7.0
158,186,1762.1066666666666,10781,1762.045,1762.052,1762.058,0.8734098095158929,91.0255001083926,-0.8714526295661926,-90.97969818115234,-0.7031090259552002,-69.20158386230469,-0.0584380850195884,-2.8872458934783936,-0.0812968015670776,-8.360649108886719,L,False,True,4,R,50,,0.336,RightResponse,correct,True,1.0
159,187,1764.9796666666666,3585,1764.571,1764.575,1764.581,0.3696581842659429,40.79159670757119,0.3226540684700012,35.40648651123047,0.2868578433990478,27.92437744140625,0.1803926974534988,20.25672912597656,0.1930444836616516,20.990434646606445,L,False,True,4,R,400,,0.243,LeftResponse,incorrect,True,6.0
160,188,1768.3186666666666,10807,1768.109,1768.115,1768.121,0.8535964343300814,102.70275505720174,-0.8535813093185425,-102.70269012451172,-0.7464756965637207,-89.76443481445312,-0.0050814449787139,0.1154882162809372,-0.0431820154190063,-6.142515182495117,L,False,True,4,R,200,,0.393,LeftResponse,incorrect,True,13.0
161,191,1786.6496666666665,10858,1786.535,1786.542,1786.549,0.7335577800413449,69.10991546005069,-0.6961681842803955,-66.8915786743164,-0.7516617178916931,-82.94617462158203,-0.2312074303627014,-17.369430541992188,-0.1651300191879272,-15.473753929138184,L,False,True,4,L,100,,0.242,LeftResponse,correct,True,11.0
162,192,1791.6626666666666,10883,1791.249,1791.256,1791.262,0.592257746365624,63.29991745728897,-0.5919906497001648,-63.287628173828125,-0.4747813940048218,-48.606483459472656,0.0177850723266601,-1.247265100479126,0.0203256607055664,4.596349239349365,L,False,True,4,L,400,,0.343,RightResponse,incorrect,True,9.0
163,193,1794.4686666666666,10896,1794.46,1794.466,1794.472,0.5303168751791142,51.87749007688458,-0.4929110556840896,-49.383602142333984,-0.6372945308685303,-66.3111572265625,-0.1956391558051109,-15.891312599182127,-0.1549767553806305,-14.666285514831545,L,False,True,4,R,0,,0.365,LeftResponse,incorrect,True,21.0
164,194,1798.5106666666666,3685,1798.299,1798.304,1798.31,0.4336821347726965,47.14793650677978,0.3988795727491379,44.85387802124024,0.5306767225265503,61.42636489868164,0.1702212691307068,14.527819633483888,0.0635184049606323,7.645328521728516,L,False,True,4,R,200,,0.394,RightResponse,correct,True,16.0
165,197,1810.0726666666665,10937,1809.861,1809.867,1809.872,0.5389612631324341,64.36675648457795,-0.533544510602951,-64.25656127929688,-0.599101185798645,-63.530887603759766,0.0762200653553009,3.764793872833252,-0.0254049897193908,-2.956206560134888,L,False,True,4,R,200,,0.359,RightResponse,correct,True,15.0
166,198,1814.4276666666665,10960,1814.313,1814.319,1814.323,0.3390822331688143,37.37463351921634,-0.3201253861188888,-35.40797424316406,-0.2233352661132812,-27.50142478942871,0.111787736415863,11.964054107666016,0.0965381264686584,9.191927909851074,L,False,True,4,R,100,,0.302,RightResponse,correct,True,9.0
167,199,1821.3936666666666,11001,1821.323,1821.329,1821.335,0.4096783962716261,48.08428330242338,-0.4090397655963897,-47.90220260620117,-0.248869776725769,-27.72759437561035,-0.0228661000728607,-4.18058443069458,-0.0101629793643951,0.8777167797088623,L,False,True,4,R,50,,0.39,LeftResponse,incorrect,True,1.0
168,200,1907.0836666666667,3888,1906.675,1906.682,1906.688,0.6199473465202158,64.12786174574083,0.6097849905490875,63.35774230957031,0.5767533481121063,48.80587387084961,0.1117898821830749,9.908538818359377,0.091466337442398,8.777039527893066,L,False,True,5,L,400,,0.396,LeftResponse,correct,True,11.0
169,201,1913.3456666666666,11139,1913.282,1913.285,1913.291,0.2410402543237357,27.60439321835787,-0.2286707907915115,-24.87660217285156,-0.0889269411563873,-10.717436790466309,0.0762238390743732,11.964831352233888,0.060975968837738,3.0025899410247803,L,False,True,5,L,50,,0.358,RightResponse,incorrect,True,4.0
170,202,1916.1936666666666,14423,1916.171,1916.177,1916.18,0.2206248439409003,21.313448799250985,-0.0558973401784896,-4.273141860961914,-0.0406523793935775,-7.414445877075195,-0.2134263552725315,-20.880693435668945,-0.2362889945507049,-25.47665405273437,L,False,True,5,R,0,,0.269,RightResponse,correct,True,24.0
171,203,1922.3096666666665,11146,1922.096,1922.101,1922.107,0.4030130823723748,42.79965046381841,-0.4014403279870748,-42.17671203613281,-0.2947102189064026,-32.28913116455078,0.0355697572231292,7.275647163391113,0.1194152235984802,10.578731536865234,L,False,True,5,R,200,,0.363,RightResponse,correct,True,14.0
172,205,1934.1876666666665,3908,1933.977,1933.983,1933.989,0.4537129822089243,48.40895617094318,0.4370145499706268,47.69747161865234,0.4878240041434765,46.77287292480469,0.1219579982571303,8.269113540649414,0.1168743222951889,9.97817325592041,L,False,True,5,R,200,,0.235,RightResponse,correct,True,13.0
173,207,1944.1836666666666,11167,1943.773,1943.777,1943.783,0.2788012455458416,31.18428268106008,-0.2642391175031662,-29.449750900268555,-0.2591322362422943,-31.571657180786133,0.0889259427785873,10.25532341003418,-0.0025407895445823,-0.9239240288734436,L,False,True,5,R,400,,0.259,RightResponse,correct,True,10.0
174,209,1956.0906666666665,3929,1956.08,1956.084,1956.089,0.185547473004476,22.037033081436903,0.1854778751730919,22.01250648498535,0.3353825323283672,33.12245559692383,0.0050815902650356,-1.0394158363342283,-0.0990885198116302,-7.229547500610352,L,False,True,5,L,0,,0.34,LeftResponse,correct,True,22.0
175,210,1961.2666666666667,11186,1961.206,1961.211,1961.216,0.2621445475944908,25.86260550657223,-0.2185081019997596,-23.39838981628418,-0.1930923759937286,-20.163848876953125,0.1448239386081695,11.0177001953125,0.1168754398822784,10.13996124267578,L,False,True,5,R,50,,0.313,LeftResponse,incorrect,True,7.0
176,211,1968.4276666666665,11196,1968.018,1968.023,1968.029,0.2482827702952365,25.73723418879995,-0.2362930085510015,-23.259742736816406,-0.2159568071365356,-20.856603622436523,0.0762230157852172,11.017694473266602,-0.0686010867357254,-5.474232196807861,L,False,True,5,L,400,,0.329,LeftResponse,correct,True,9.0
177,212,1971.2586666666666,11200,1970.843,1970.849,1970.853,0.4044317464052046,42.37067909899206,-0.2769460827112198,-31.41341590881348,-0.2337478399276733,-26.10032081604004,0.2947302237153053,28.433637619018555,0.2413523197174072,22.74950790405273,L,False,True,5,L,400,,0.239,RightResponse,incorrect,True,8.0
178,213,1974.3646666666666,11211,1973.956,1973.964,1973.969,0.5987813073133584,61.179148517898,-0.5945401787757874,-60.74773025512695,-0.6631316393613815,-60.353702545166016,-0.0711409151554107,-7.252687931060791,0.0127039328217506,-0.762235164642334,L,False,True,5,R,400,,0.31,LeftResponse,incorrect,True,11.0
179,214,1977.2116666666666,3964,1977.152,1977.154,1977.158,0.094276931664972,12.350963398717887,0.0914616882801055,11.894675254821776,0.1143302321434021,17.80784034729004,-0.0228669941425323,-3.326108455657959,-0.0381111055612564,-3.69562029838562,L,False,True,5,R,50,,0.23,RightResponse,correct,True,10.0
180,215,1980.9546666666665,11225,1980.841,1980.846,1980.85,0.2266423669378494,24.67437139829397,-0.2261290792375803,-24.668651580810547,-0.1651480793952942,-16.376222610473633,0.0152447372674942,0.5312561392784119,0.0711359977722168,6.975020408630371,L,False,True,5,R,100,,0.296,RightResponse,correct,True,8.0
181,216,1984.6976666666665,11232,1984.484,1984.488,1984.493,0.197757665446748,19.004458173602547,-0.1854777820408344,-17.439069747924805,-0.1905499100685119,-21.711145401000977,0.0686009228229522,7.553030967712402,0.060974895954132,6.443942546844482,L,False,True,5,L,200,,0.23,RightResponse,incorrect,True,12.0
182,217,1988.3326666666665,3982,1988.268,1988.277,1988.284,1.1595136335090042,110.31465468498428,1.1457924991846085,109.6358871459961,1.2271436750888824,117.21912384033205,-0.1778522282838821,-12.218645095825195,-0.167686253786087,-14.782468795776367,L,False,True,5,L,50,,0.348,LeftResponse,correct,True,9.0
183,218,1991.1556666666665,11248,1991.093,1991.097,1991.101,0.2287980247471942,27.428675941653832,-0.22867102175951,-27.417430877685547,-0.2108821868896484,-24.206411361694336,-0.0076223313808441,-0.7853330373764038,-0.0152443349361419,-0.7622168064117432,L,False,True,5,R,50,,0.256,LeftResponse,incorrect,True,8.0
184,219,1996.5056666666665,3992,1996.093,1996.097,1996.099,0.143840288008062,18.185018999446157,0.1168754920363426,13.489178657531738,0.147353857755661,18.03819465637207,0.0838459767401218,12.19577693939209,0.0990885943174362,10.994465827941896,L,False,True,5,R,400,,0.377,RightResponse,correct,True,14.0
185,221,2007.1716666666666,11273,2006.958,2006.965,2006.971,0.5735438544502006,60.74009903438127,-0.5615095645189285,-59.68510055541992,-0.3505576252937317,-37.91938400268555,-0.1168741285800933,-11.27157497406006,-0.0813054009340703,-10.347962379455566,L,False,True,5,L,200,,0.303,RightResponse,incorrect,True,15.0
186,223,2015.1116666666665,4013,2014.898,2014.903,2014.91,0.3334609263851986,29.402555984348457,0.3252186672762036,27.48659896850586,0.2820194810628891,25.96133041381836,0.0736818015575409,10.440171241760254,-0.025407887995243,-4.273143768310547,L,False,True,5,R,200,,0.395,RightResponse,correct,True,18.0
187,224,2018.0506666666665,11296,2017.838,2017.843,2017.848,0.3128771327356416,34.339381329214895,-0.2591595267876982,-29.40376281738281,-0.0863775014877319,-14.249958038330078,-0.1752952933311462,-17.737300872802734,-0.1473660133779049,-9.63192081451416,L,False,True,5,R,200,,0.208,RightResponse,correct,True,17.0
188,225,2024.9536666666665,11302,2024.84,2024.844,2024.848,0.1931601965206555,20.56312795779756,-0.1727738939225673,-18.84806251525879,-0.1295526027679443,-14.872003555297852,0.0863715410232544,8.221482276916504,0.0889278091490268,9.67811679840088,L,False,True,5,L,100,,0.341,LeftResponse,correct,True,7.0
189,226,2029.5246666666665,11311,2029.311,2029.318,2029.324,0.469054262007646,50.11114538174059,-0.4675034880638122,-49.706974029541016,-0.4039261937141418,-43.09455108642578,-0.0381102263927459,-6.351663112640381,-0.0127037465572357,-3.7187306880950928,L,False,True,5,L,200,,0.28,LeftResponse,correct,True,16.0
190,227,2032.1606666666667,4041,2032.05,2032.056,2032.061,0.2414922222394841,24.151248540361845,0.2413719221949577,24.114070892333984,0.3785163760185241,40.92327117919922,-0.0076215863227844,-1.3395488262176514,-0.1016317172907292,-11.410472869873049,L,False,True,5,L,100,,0.236,LeftResponse,correct,True,6.0
191,228,2035.9906666666666,4047,2035.88,2035.886,2035.894,0.3278220682003282,26.475249484134125,0.3124912977218628,24.3204345703125,0.2184820771217346,19.40033721923828,0.0990782380104065,10.462088584899902,0.1575280427932739,18.755475997924805,L,False,True,5,R,100,,0.305,LeftResponse,incorrect,True,5.0
192,229,2041.1076666666665,6767,2041.099,2041.102,2041.105,0.1604449524926149,19.686251553418668,-0.030488908290863,-3.949699878692627,0.0330240130424499,4.110682964324951,0.1575214564800262,19.28596305847168,-0.0050815865397453,-0.7160403728485107,L,False,True,5,R,0,,0.311,RightResponse,correct,True,21.0
193,230,2047.2606666666666,4061,2047.252,2047.255,2047.258,0.1623077081708042,19.44876911490893,0.1041698306798935,12.588160514831545,0.1422656774520874,17.806306838989258,0.1244686245918273,14.825411796569824,0.0431933775544166,5.589731693267822,L,False,True,5,R,0,,0.231,RightResponse,correct,True,20.0
194,231,2050.029666666667,11344,2049.917,2049.924,2049.931,0.6608360491733428,67.54650387220006,-0.6605967581272125,-67.0993423461914,-0.4521869421005249,-49.81514358520508,0.0177822113037109,7.7594099044799805,-0.0355711244046688,-6.744654655456543,L,False,True,5,R,100,,0.241,LeftResponse,incorrect,True,8.0
195,232,2054.009666666667,11356,2053.896,2053.904,2053.911,0.6903355295428887,62.8674457606844,-0.6732934862375259,-61.53215408325195,-0.5842824578285217,-54.9415397644043,-0.1524435132741928,-12.888357162475586,-0.0686007440090179,-13.073413848876951,L,False,True,5,L,100,,0.218,RightResponse,incorrect,True,11.0
196,233,2060.183666666667,4085,2060.168,2060.178,2060.186,1.0284501646713071,94.60355914130756,1.011120855808258,94.34437561035156,1.061996191740036,95.73694610595705,0.1880009472370147,6.998013496398926,0.055897431448102,3.880476236343384,L,False,True,5,L,0,,0.385,LeftResponse,correct,True,19.0
197,234,2063.219666666667,14590,2063.207,2063.212,2063.217,0.2440339707235067,26.16605053225864,0.0609781295061111,7.599175930023193,0.1981601119041443,20.139352798461918,-0.2362927137874066,-25.038265228271484,-0.2998112100176513,-29.5654296875,L,False,True,5,R,0,,0.374,LeftResponse,incorrect,True,18.0
198,235,2070.3016666666667,4106,2070.245,2070.249,2070.25,0.088958225216329,11.908830481097368,0.0889219343662262,9.515783309936523,0.2159445583820343,21.386701583862305,0.0025407522916793,7.160315036773682,0.0203258395195007,0.0461938232183456,L,False,True,5,R,50,,0.395,RightResponse,correct,True,14.0
199,236,2073.3906666666667,11398,2072.979,2072.986,2072.992,0.7201798665846612,76.77074911683034,-0.5996212065219879,-67.49224090576172,-0.6224285960197449,-58.33891677856445,0.398890271782875,36.58613586425781,0.4293865817598998,38.55007553100586,L,False,True,5,L,400,,0.2,LeftResponse,correct,True,12.0
200,237,2076.550666666667,4118,2076.537,2076.543,2076.549,0.4207559804968621,43.65237213771634,0.4166791588068008,43.307861328125,0.3810190558433532,36.46271514892578,0.0584300756454467,5.47345781326294,-0.0508148521184921,-6.213263511657715,L,False,True,5,L,0,,0.296,LeftResponse,correct,True,21.0
201,238,2080.447666666667,11412,2080.234,2080.239,2080.244,0.2758218247021683,29.44557456099566,-0.2744028307497501,-29.264991760253903,-0.1981169581413269,-20.64299964904785,-0.0279421806335449,-3.256089448928833,0.0431934781372547,4.157661437988281,L,False,True,5,L,200,,0.281,LeftResponse,correct,True,15.0
202,239,2084.0316666666668,4133,2083.965,2083.971,2083.978,0.382666008132044,39.3599167027912,0.3759961724281311,39.354976654052734,0.2184782028198242,21.03946304321289,-0.0711347460746765,-0.6235827207565308,-0.0965499281883239,-4.296231269836426,L,False,True,5,L,50,,0.385,LeftResponse,correct,True,13.0
