,trialIndex,targetOnsetTime,Unnamed: 0,startTime,peakVelocityTime,stopTime,amplitude,peakVelocity,saccade_vec_left_x,peak_velocity_vec_left_x,saccade_vec_right_x,peak_velocity_vec_right_x,saccade_vec_left_y,peak_velocity_vec_left_y,saccade_vec_right_y,peak_velocity_vec_right_y,whichEye,otherEyeMissingData,isBinocular,blockId,arrowDirection,latency,blankDuration,fixationDurationInSec,response,result,isSaccade,blankDurationInFrameCount
0,0,211.65766666666667,9922,211.246,211.252,211.257,0.602782358723885,61.41375109900024,-0.5767267495393753,-60.37485504150391,-0.4522550441324711,-45.040802001953125,-0.175307810306549,-11.248364448547363,-0.1778493970632553,-14.782340049743652,L,False,True,0,L,400,,0.29,LeftResponse,correct,True,4.0
1,1,218.34466666666668,6017,217.924,217.927,217.932,0.3099666992532101,32.094714650826006,-0.0787530541419982,-16.143131256103516,0.0355710722506046,-0.8546277284622192,0.2997954487800598,27.73932266235352,0.2921382188796997,28.728422164916992,L,False,True,0,R,400,,0.235,RightResponse,correct,True,3.0
2,5,233.31966666666668,9991,233.209,233.216,233.22,0.5304375352444076,54.29037003735285,-0.5156200528144836,-52.62321853637695,-0.3302935510873794,-28.64069938659668,0.1244987547397613,13.350698471069336,0.0965481698513031,10.440118789672852,L,False,True,0,L,100,,0.293,RightResponse,incorrect,True,3.0
3,6,236.8216666666667,1287,236.61,236.615,236.623,0.5170093787841287,42.332538495243085,0.4598529189825058,39.79494094848633,0.500508725643158,38.13197326660156,0.2362921722233295,14.436290740966797,0.3480819873511791,20.57986259460449,L,False,True,0,L,200,,0.378,LeftResponse,correct,True,3.0
4,7,243.03266666666667,10014,242.622,242.627,242.629,0.2505011141006106,30.72288516115515,-0.1905480623245239,-20.671463012695312,-0.0660606604069471,-2.2405190467834477,0.1626107133924961,22.728534698486328,0.1956356167793274,27.32431030273437,L,False,True,0,R,400,,0.277,RightResponse,correct,True,2.0
5,8,247.16766666666666,10020,246.955,246.959,246.963,0.3204601629205383,35.969239505453444,-0.3124637007713318,-34.36414337158203,-0.1803802549839019,-20.74025154113769,0.0711417719721794,10.625057220458984,-0.0127031207084655,-0.5774144530296326,L,False,True,0,R,200,,0.236,LeftResponse,incorrect,True,2.0
6,9,249.96966666666668,1316,249.857,249.864,249.869,0.5368413234631966,50.56042895397712,0.4903696477413177,48.0669059753418,0.7190289050340652,74.90620422363281,0.2184861898422241,15.682140350341797,0.2083427086472511,14.482365608215332,L,False,True,0,L,100,,0.303,LeftResponse,correct,True,6.0
7,10,253.37466666666668,10038,253.316,253.32,253.324,0.3403248088807275,38.45514038248261,-0.2946896553039551,-33.34880447387695,-0.2159481644630432,-26.9068603515625,0.170232143253088,19.148239135742188,0.0660592913627624,7.067874908447266,L,False,True,0,L,50,,0.342,RightResponse,incorrect,True,4.0
8,11,256.3396666666667,10048,256.329,256.334,256.339,0.464137691316502,53.98133800275019,-0.4623539447784424,-53.85626220703125,-0.2921623289585113,-39.031829833984375,-0.0406525060534477,-3.672584056854248,-0.0076223462820053,-1.8478368520736692,L,False,True,0,L,0,,0.233,RightResponse,incorrect,True,4.0
9,12,260.5106666666667,10069,260.501,260.504,260.508,0.292846257775696,32.86733932563463,-0.205794483423233,-24.090221405029297,-0.2540789768099785,-31.367206573486328,-0.2083448134362697,-22.358963012695312,-0.0279487036168575,-2.9565577507019043,L,False,True,0,R,0,,0.334,LeftResponse,incorrect,True,7.0
10,13,265.66066666666666,10078,265.449,265.452,265.455,0.2297525923709803,27.744535137623984,-0.2007196545600891,-24.48363304138184,-0.0558946132659912,-6.952167510986328,0.1117938905954361,13.050323486328123,0.1905536204576492,24.69112014770508,L,False,True,0,L,200,,0.333,RightResponse,incorrect,True,5.0
11,15,272.6016666666667,10105,272.391,272.395,272.398,0.263493321333933,31.438850935017896,-0.2032440304756164,-24.042774200439453,-0.1041714251041412,-12.42665672302246,0.1676919630263,20.257007598876957,0.1499062664806842,18.43222999572754,L,False,True,0,L,200,,0.313,LeftResponse,correct,True,8.0
12,16,275.4906666666667,6144,275.478,275.481,275.486,0.3000291039353021,35.81359059578019,-0.210871160030365,-24.27444648742676,-0.2032443583011627,-25.52096939086914,0.213426373898983,26.33181571960449,0.1600683704018592,16.330177307128906,L,False,True,0,R,0,,0.242,LeftResponse,incorrect,True,10.0
13,17,279.29566666666665,10120,279.186,279.191,279.196,0.3942121595744531,40.74449395897523,-0.3938107937574386,-40.743839263916016,-0.3277404308319092,-35.01446914672852,-0.0177844166755676,-0.2309762090444564,-0.0457342979498207,-3.18754243850708,L,False,True,0,L,100,,0.369,RightResponse,incorrect,True,5.0
14,19,285.4496666666667,10136,285.437,285.443,285.449,0.6261533887524346,64.4048874984614,-0.6046700179576874,-62.96153259277344,-0.37856625020504,-41.39020538330078,0.162610687315464,13.558574676513672,0.2286707907915115,18.33983993530273,L,False,True,0,R,0,,0.274,RightResponse,correct,True,13.0
15,20,288.69666666666666,10142,288.486,288.492,288.496,0.4181928427346247,43.3064204492632,-0.3378543853759765,-35.95602798461914,-0.1676695346832275,-18.79939842224121,0.2464541904628276,24.137317657470703,0.1753140315413475,15.59117317199707,L,False,True,0,R,200,,0.256,RightResponse,correct,True,7.0
16,21,291.68666666666667,10150,291.674,291.679,291.683,0.3238877120551549,35.74739393772958,-0.3226798847317695,-35.34004592895508,-0.2439005672931671,-29.170902252197266,0.027945339679718,5.381201267242432,-0.0152446925640106,0.2771754562854767,L,False,True,0,L,0,,0.372,RightResponse,incorrect,True,12.0
17,22,294.8376666666667,10157,294.766,294.772,294.773,0.2699471977667778,31.687777661616767,-0.221026211977005,-19.74662208557129,-0.1092358827590942,-7.782724380493164,0.154980331659317,24.78277969360352,0.1448244154453277,28.57229804992676,L,False,True,0,L,50,,0.343,RightResponse,incorrect,True,7.0
18,24,302.1406666666667,14694,302.135,302.139,302.145,0.5188185325137318,54.66091795095743,-0.091465801000595,-13.696855545043944,0.0228670910000801,4.088358402252197,-0.5106923505663872,-52.917030334472656,-0.3252061009407043,-32.03548049926758,L,False,True,0,L,0,,0.268,RightResponse,incorrect,True,15.0
19,25,306.7416666666667,10188,306.53,306.534,306.538,0.3962889878812657,47.88059093123952,-0.3861825317144394,-47.094852447509766,-0.2108621597290039,-22.633451461791992,0.0889270156621933,8.638626098632812,0.2007209509611129,21.781328201293945,L,False,True,0,L,200,,0.257,RightResponse,incorrect,True,6.0
20,26,310.35066666666665,6219,309.939,309.943,309.95,0.4601874757529954,51.18881845403107,-0.2617012709379196,-36.67969512939453,-0.2007135450839996,-31.52703666687012,0.3785299956798553,35.70567321777344,0.373495414853096,27.348133087158203,L,False,True,0,L,400,,0.392,RightResponse,incorrect,True,4.0
21,28,316.8416666666667,10242,316.731,316.735,316.74,0.4338473573451689,54.31436693093804,-0.411581352353096,-51.85197448730469,-0.215967122465372,-22.589927673339844,-0.1372017487883567,-16.16858673095703,-0.0558968633413314,0.0692959576845169,L,False,True,0,R,100,,0.229,RightResponse,correct,True,11.0
22,29,320.1476666666667,10255,319.734,319.741,319.746,0.6934934229406599,75.96746187696668,-0.6301081776618958,-70.33305358886719,-0.2998129799962044,-36.40255355834961,-0.2896494641900062,-28.710918426513672,-0.2845682576298713,-24.48399353027344,L,False,True,0,L,400,,0.294,RightResponse,incorrect,True,7.0
23,30,322.6906666666667,10266,322.578,322.583,322.588,0.4554748583103051,48.60070061446977,-0.439542181789875,-46.84146881103516,-0.1778533831238746,-21.01903343200684,0.1194153130054473,12.957812309265137,0.1575265079736709,13.92790699005127,L,False,True,0,R,100,,0.206,LeftResponse,incorrect,True,10.0
24,32,329.5566666666667,10285,329.497,329.501,329.506,0.4658930842700171,49.9454861841066,-0.4573273062705993,-48.29673004150391,-0.1295773237943649,-17.715805053710938,0.0889275036752224,12.727036476135254,0.0736805200576782,8.199536323547363,L,False,True,0,L,50,,0.285,RightResponse,incorrect,True,9.0
25,33,334.84366666666665,10296,334.832,334.836,334.839,0.260684594899974,31.06928540699158,-0.2184345126152038,-24.960498809814453,-0.0482738614082336,-4.896685600280762,0.1422772705554962,18.50064849853516,0.1117924749851226,13.373538970947266,L,False,True,0,R,0,,0.242,RightResponse,correct,True,18.0
26,34,338.7286666666667,1626,338.667,338.67,338.675,0.2694198664763294,32.282067124090446,0.2693120241165161,31.9663200378418,0.1549883745610714,21.38884925842285,0.0076222121715545,4.504024982452393,-0.0101630836725234,3.4877820014953613,L,False,True,0,R,50,,0.283,RightResponse,correct,True,12.0
27,35,341.5636666666667,10314,341.504,341.508,341.512,0.2982332870573345,35.431895615863525,-0.2896237075328827,-33.85880279541016,-0.2540570497512817,-29.77090072631836,0.0711421221494674,10.440340042114258,0.1041711270809173,13.535351753234863,L,False,True,0,R,50,,0.371,RightResponse,correct,True,11.0
28,36,344.7656666666667,10323,344.703,344.709,344.714,0.4197715709952642,44.19740368940089,-0.4141281098127365,-43.67618179321289,-0.3073947429656982,-33.00259017944336,0.0686008781194686,6.767690658569336,0.1321098506450653,11.848270416259766,L,False,True,0,R,50,,0.373,RightResponse,correct,True,10.0
29,37,348.0296666666667,10335,347.968,347.973,347.977,0.3786064865220245,40.1910916771411,-0.3785723848268389,-40.19013595581055,-0.2210404276847839,-26.58496856689453,0.0050814449787139,-0.2771679162979126,0.0635169148445129,3.880315065383911,L,False,True,0,R,50,,0.391,LeftResponse,incorrect,True,9.0
30,39,354.1616666666667,6335,354.052,354.056,354.062,0.6059263925845967,70.86087426510477,0.4751252382993698,56.89033126831055,0.5132370293140411,62.36458969116211,0.376035638153553,42.24634552001953,0.3963624089956283,43.63223648071289,L,False,True,0,R,100,,0.251,RightResponse,correct,True,13.0
31,41,423.52366666666666,6609,423.515,423.516,423.524,0.2568021187196775,30.16219329304158,-0.1168626546859741,-23.603364944458008,0.0177855379879474,-9.23923110961914,0.2286710478365421,18.7786865234375,0.2819950878620147,21.917085647583008,L,False,True,1,L,0,,0.324,RightResponse,incorrect,True,17.0
32,42,426.6886666666667,15085,426.477,426.482,426.487,0.3660750079604115,43.91952205219909,0.0127019882202148,-3.903084754943848,-0.1498953104019165,-14.412129402160645,-0.3658545762300491,-43.74574661254883,-0.5157724320888519,-60.35448455810547,L,False,True,1,R,200,,0.235,RightResponse,correct,True,8.0
33,43,430.4766666666667,2101,430.468,430.472,430.476,0.2834733361191793,34.894778623312874,0.274401530623436,33.69965362548828,0.4116027187556028,45.04069137573242,0.0711402297019958,9.054221153259276,0.0431854128837585,2.609603881835937,L,False,True,1,L,0,,0.365,LeftResponse,correct,True,20.0
34,46,442.5386666666667,10776,442.324,442.328,442.331,0.3494354308512643,40.66525814908344,-0.2286700308322906,-26.377906799316406,-0.066051185131073,-5.288709163665772,0.2642255425453186,30.949462890625,0.2819752693176269,30.391624450683597,L,False,True,1,L,200,,0.307,RightResponse,incorrect,True,7.0
35,47,445.96066666666667,10793,445.901,445.906,445.912,0.5588624575130433,61.63907572504589,-0.551328033208847,-60.95330047607422,-0.1930829882621765,-25.19752693176269,0.0914584398269653,9.16901397705078,0.2820183783769607,26.74642944335937,L,False,True,1,R,50,,0.212,RightResponse,correct,True,15.0
36,48,449.0996666666667,10809,448.989,448.995,449.001,0.607278476316049,59.4155378267776,-0.6047007441520691,-59.1998405456543,-0.3963606506586075,-37.58043670654297,0.0558941662311553,5.058163166046143,-0.1778539940714836,-17.25417709350586,L,False,True,1,L,100,,0.205,LeftResponse,correct,True,15.0
37,49,453.6876666666667,10818,453.626,453.629,453.634,0.3137619527545118,37.29677928299674,-0.2921882458031177,-36.425392150878906,-0.0812983214855194,-13.141615867614746,0.114335436373949,8.015020370483398,0.2820211350917816,24.067533493041992,L,False,True,1,L,50,,0.229,RightResponse,incorrect,True,14.0
38,50,457.28066666666666,10829,457.27,457.275,457.28,0.5174759306196932,57.5894191807379,-0.4725694730877876,-54.87905502319336,-0.1524458676576614,-17.623586654663086,-0.2108540534973144,-17.459396362304688,-0.2007223479449749,-12.288187980651855,L,False,True,1,L,0,,0.367,LeftResponse,correct,True,22.0
39,51,461.7526666666667,10840,461.343,461.348,461.353,0.4907611575860862,52.02485996218222,-0.4903400540351867,-51.96721649169922,-0.3658688487485051,-39.61260223388672,0.0203259736299514,2.448359489440918,0.1194148659706115,9.701021194458008,L,False,True,1,R,400,,0.227,RightResponse,correct,True,10.0
40,52,464.7286666666667,6706,464.654,464.66,464.666,0.6101378556386835,64.5592197062851,-0.0813051611185073,-12.51915454864502,-0.0355674624443054,-3.810820817947388,0.6046963483095169,63.33374786376953,0.5208131670951843,51.642356872558594,L,False,True,1,R,50,,0.356,LeftResponse,incorrect,True,17.0
41,53,467.85566666666665,15175,467.644,467.647,467.65,0.2977765355977443,36.35511519879827,-0.1778530925512313,-22.243200302124023,-0.0787590146064758,-9.35407543182373,-0.2388286888599395,-28.756467819213867,-0.1880094110965728,-22.33476829528809,L,False,True,1,R,200,,0.325,RightResponse,correct,True,10.0
42,54,471.4696666666667,2232,471.257,471.261,471.266,0.3719954536625183,38.26635796099797,0.3531587868928909,36.35540771484375,0.4598650857806206,47.92670440673828,0.1168738156557083,11.941460609436035,0.0787634849548339,5.358681201934815,L,False,True,1,R,200,,0.262,LeftResponse,incorrect,True,9.0
43,55,474.57166666666666,10877,474.559,474.568,474.575,1.5900369726573094,133.79724865806108,-1.107714727520943,-93.4743423461914,-0.6783455684781075,-67.97346496582031,-1.1406952515244484,-95.73009490966795,-1.0747247338294983,-107.35733795166016,L,False,True,1,R,0,,0.242,RightResponse,correct,True,21.0
44,56,477.4436666666667,10886,477.331,477.337,477.342,0.6346702537608855,67.55199103253592,-0.6326328474096954,-67.282470703125,-0.4116031564772129,-46.19576644897461,0.0508134961128234,6.028318881988525,-0.0635180175304412,-6.744481563568115,L,False,True,1,L,100,,0.24,LeftResponse,correct,True,14.0
45,57,482.7526666666667,10896,482.342,482.346,482.351,0.3804056481613754,43.700515244547184,-0.3658641949295997,-43.03062438964844,-0.1549769043922424,-18.453996658325195,0.1041722036898136,7.622361660003662,0.3023436218500137,27.09296989440918,L,False,True,1,L,400,,0.24,LeftResponse,correct,True,9.0
46,59,489.6806666666667,2287,489.27,489.273,489.277,0.3308874800481128,38.21616397333951,0.3252200484275818,37.39567565917969,0.5258815884590149,61.73373031616211,-0.0609790501184761,-7.876460552215576,0.0381082296371459,7.159763336181641,L,False,True,1,L,400,,0.371,RightResponse,incorrect,True,8.0
47,60,493.20666666666665,2304,493.095,493.099,493.103,0.6633133712084912,80.12612425016714,0.4293914586305618,52.73268127441406,0.551272988319397,62.28749084472656,0.5055765062570572,60.327938079833984,0.3912589401006698,40.7195930480957,L,False,True,1,R,100,,0.281,LeftResponse,incorrect,True,13.0
48,62,499.4646666666667,10955,499.353,499.358,499.363,0.4940979422291786,57.99293977917488,-0.4699931740760803,-55.65984344482422,-0.3937826156616211,-45.5907096862793,0.1524440646171569,16.283823013305664,0.1143115758895874,12.400955200195312,L,False,True,1,L,100,,0.395,LeftResponse,correct,True,15.0
49,64,506.65866666666665,10975,506.649,506.653,506.658,0.420765924705475,46.85247452318978,-0.4166885316371918,-46.403995513916016,-0.1524273753166198,-19.168724060058597,0.0584348440170288,6.467114448547363,0.1778390109539032,15.589642524719238,L,False,True,1,L,0,,0.317,LeftResponse,correct,True,18.0
50,65,509.8016666666667,15262,509.583,509.585,509.587,0.1298030547087831,21.94554347065438,-0.0838442146778106,-10.925138473510742,-0.1422750949859619,-18.361785888671875,-0.0990907698869705,-19.032819747924805,-0.1397396624088287,-18.89375686645508,L,False,True,1,L,200,,0.225,RightResponse,incorrect,True,12.0
51,68,522.0376666666667,11014,521.626,521.633,521.638,0.6606148619880637,69.07175306788069,-0.6605709046125412,-68.96784973144531,-0.355695828795433,-37.32476425170898,0.0076207518577575,-3.787185668945313,0.2108843140304088,29.26492118835449,L,False,True,1,L,400,,0.22,LeftResponse,correct,True,14.0
52,71,533.0126666666666,11052,532.801,532.804,532.809,0.3126807447933672,38.207583421312265,-0.2744035781361162,-35.27055740356445,-0.2286597490310669,-27.87803077697754,0.1499063856899738,14.690378189086914,-0.0254079103469848,-3.0027546882629395,L,False,True,1,L,200,,0.264,LeftResponse,correct,True,15.0
53,72,536.7806666666667,2446,536.572,536.577,536.582,0.5811108762660073,63.64146666571987,0.5563895851373672,61.36711883544922,0.4649463966488838,51.80693435668945,0.1676916219294071,16.861583709716797,0.0127031803131103,-2.8640050888061523,L,False,True,1,L,200,,0.4,LeftResponse,correct,True,14.0
54,73,540.3156666666666,2461,540.253,540.256,540.26,0.269515249021475,31.4871784298685,0.2693235650658607,31.482696533203125,0.5132355391979218,62.71086120605469,0.0101630091667175,0.5312480330467224,0.154986023902893,18.38582992553711,L,False,True,1,R,50,,0.342,RightResponse,correct,True,19.0
55,74,544.1666666666666,2474,543.756,543.762,543.766,0.399605174304152,40.76649064917376,0.3455366343259811,34.76171875,0.304894670844078,34.43925476074219,0.2007205262780189,21.296236038208008,0.0635191351175308,10.601903915405272,L,False,True,1,L,400,,0.392,RightResponse,incorrect,True,13.0
56,75,548.0546666666667,2488,547.645,547.647,547.65,0.1601437328562859,21.14001768367703,0.1600631177425384,21.1339111328125,0.2616953551769256,31.805339813232425,-0.0050806999206542,-0.5080825686454773,-0.0558972582221031,-6.559847354888916,L,False,True,1,R,400,,0.281,RightResponse,correct,True,16.0
57,76,551.7816666666666,11107,551.371,551.375,551.379,0.3981287802149128,47.1152252784488,-0.3938170075416565,-46.70376968383789,-0.276938334107399,-34.73846435546875,-0.0584353506565094,-6.21307897567749,-0.1143304109573364,-11.733318328857422,L,False,True,1,R,400,,0.295,RightResponse,correct,True,15.0
58,77,554.7206666666667,6889,554.648,554.653,554.659,0.5783620912162395,63.30670948996665,0.2667745798826217,35.89298248291016,0.3556635975837707,47.96917343139648,0.5131608247756958,52.14818572998047,0.3785689324140548,40.37438583374024,L,False,True,1,L,50,,0.262,LeftResponse,correct,True,18.0
59,78,558.7466666666667,6897,558.527,558.531,558.535,0.269853865783106,27.352647387194853,0.0406509041786193,4.781106948852539,0.1295765936374664,14.944071769714355,0.2667744606733322,26.931549072265625,0.13719442486763,16.491043090820312,L,False,True,1,R,200,,0.381,LeftResponse,incorrect,True,13.0
60,79,562.1396666666667,2528,562.08,562.086,562.091,0.6263420915477477,64.65204543231675,0.6122525930404663,63.78855895996094,0.7520465925335884,79.15446472167969,0.1321029067039489,10.53122615814209,-0.0228655040264129,-1.1779111623764038,L,False,True,1,R,50,,0.334,RightResponse,correct,True,17.0
61,80,616.5136666666667,11461,616.299,616.305,616.309,0.5052060425676043,49.31827159153912,-0.3887391313910484,-38.873905181884766,-0.2819948196411133,-31.31735038757324,0.3226686120033264,30.349817276000977,0.2261267304420471,27.55548477172852,L,False,True,2,R,200,,0.345,RightResponse,correct,True,16.0
62,81,619.6276666666666,11476,619.616,619.623,619.628,0.5825791727869001,58.55718383472438,-0.5563726127147675,-56.21407699584961,-0.3530389070510864,-38.95108795166016,0.1727657616138458,16.398820877075195,0.1321065425872802,10.739279747009276,L,False,True,2,R,0,,0.244,RightResponse,correct,True,17.0
63,84,630.7896666666667,11522,630.679,630.685,630.691,0.5994372537672886,61.0552140406294,-0.5716490224003792,-58.43539047241211,-0.3302612006664276,-35.5434684753418,0.1803951673209667,17.693058013916016,0.2261259704828262,17.04592514038086,L,False,True,2,L,100,,0.345,LeftResponse,correct,True,15.0
64,85,633.6706666666666,11533,633.609,633.615,633.621,0.6555364155725394,70.67432084763401,-0.6529271602630615,-70.6736831665039,-0.3861974030733108,-40.02872085571289,0.0584304332733154,-0.3002248406410217,0.0508155673742294,1.5475566387176514,L,False,True,2,L,50,,0.259,LeftResponse,correct,True,16.0
65,86,636.8556666666667,11546,636.645,636.65,636.655,0.4424562184825026,51.09618125886722,-0.4344401657581329,-50.39594268798828,-0.4039283096790313,-43.833980560302734,0.0838406085968017,8.430225372314453,0.0025407373905181,-0.1847748309373855,L,False,True,2,L,200,,0.271,LeftResponse,correct,True,15.0
66,87,641.8146666666667,7231,641.754,641.758,641.764,0.4904594739391255,48.897354158185095,0.343005821108818,37.53434753417969,0.3912430107593536,41.59539031982422,0.3505674004554748,31.33885765075684,0.1575272977352142,10.37087059020996,L,False,True,2,R,50,,0.386,LeftResponse,incorrect,True,15.0
67,89,650.0866666666667,3008,649.871,649.874,649.879,0.2915637122524853,34.05062653450158,0.287102460861206,33.121883392333984,0.1727611422538757,22.95787048339844,0.0508092045783996,7.898481369018555,-0.0508157312870025,-5.682122707366943,L,False,True,2,L,200,,0.306,LeftResponse,correct,True,13.0
68,90,654.3336666666667,11615,653.922,653.926,653.93,0.2876543884614134,31.06502224371495,-0.2617000639438629,-29.51922416687012,-0.1879743933677673,-21.9149227142334,0.1194073855876922,9.677345275878906,0.063519830815494,5.9131178855896,L,False,True,2,R,400,,0.331,LeftResponse,incorrect,True,14.0
69,91,657.4276666666667,7268,657.418,657.424,657.43,0.5800859421821207,62.11936666572738,0.0355695486068725,-4.065215110778809,-0.0508158877491951,-11.64144515991211,0.5789943933486938,61.9862060546875,0.4878019541501999,54.76243209838867,L,False,True,2,L,0,,0.293,LeftResponse,correct,True,15.0
70,92,660.5076666666666,11636,660.395,660.4,660.404,0.4457735773015058,48.10890029985215,-0.4065254926681518,-44.85643005371094,-0.4700234830379486,-51.15951919555664,0.1828964352607727,17.388702392578125,0.132117211818695,12.010677337646484,L,False,True,2,R,100,,0.318,RightResponse,correct,True,14.0
71,93,664.6676666666667,11646,664.255,664.259,664.263,0.3426172507544346,37.76966365631311,-0.3150565773248672,-35.10896682739258,-0.2210396826267242,-24.021020889282227,0.1346325874328613,13.92508316040039,0.0558966994285583,6.929341793060303,L,False,True,2,R,400,,0.293,RightResponse,correct,True,17.0
72,94,667.9526666666667,3061,667.742,667.748,667.753,0.5016289251533375,49.56022936125255,0.4852773025631904,45.9869499206543,0.4141468107700348,39.31291198730469,-0.127033531665802,-18.477466583251957,-0.3684123046696186,-40.07511138916016,L,False,True,2,R,200,,0.309,LeftResponse,incorrect,True,12.0
73,95,670.9536666666667,11670,670.943,670.949,670.954,0.4652244031855178,49.52695361325525,-0.4445493221282959,-47.01848602294922,-0.4242808818817138,-46.79336166381836,0.1371482610702514,15.562169075012209,0.1295802015811205,18.33988380432129,L,False,True,2,L,0,,0.238,LeftResponse,correct,True,14.0
74,96,674.2636666666667,3084,674.154,674.157,674.161,0.2983298622502965,35.97488713544367,0.2972461879253387,35.937496185302734,0.4217017292976379,51.80042266845703,0.025404930114746,1.6397781372070312,0.0025407895445823,4.919883728027344,L,False,True,2,R,100,,0.378,RightResponse,correct,True,13.0
75,97,677.6066666666667,11691,677.593,677.599,677.605,0.4422709120271147,43.50084420742532,-0.4420884400606155,-43.492897033691406,-0.2616654634475708,-30.346736907958984,-0.0127031803131103,0.8314772248268127,-0.0457338690757751,-2.979628562927246,L,False,True,2,L,0,,0.246,LeftResponse,correct,True,13.0
76,98,681.4086666666667,3105,680.997,681.001,681.006,0.3015344972676185,33.689898294215936,0.2896443083882332,31.80550193786621,0.2210296690464019,23.14230155944824,-0.0838404893875122,-11.109423637390137,0.0304871797561645,2.5867998600006104,L,False,True,2,L,400,,0.307,LeftResponse,correct,True,16.0
77,99,684.4346666666667,11708,684.324,684.329,684.334,0.4318702518939972,54.79614001106022,-0.4318702518939972,-54.75758361816406,-0.3201123774051666,-37.60025787353516,0.0,-2.055236339569092,0.0508157946169376,0.7391384243965149,L,False,True,2,L,100,,0.213,LeftResponse,correct,True,12.0
78,100,688.7186666666666,7332,688.647,688.65,688.652,0.2305335761712002,28.60982189068752,0.1219580918550491,15.752917289733888,0.2794802486896515,34.76177215576172,0.1956321895122528,23.882368087768555,0.269312784075737,35.36177062988281,L,False,True,2,L,50,,0.222,LeftResponse,correct,True,18.0
79,101,693.1906666666666,11741,692.777,692.781,692.785,0.2872092809943189,32.159354559191065,-0.28710812702775,-32.10622787475586,-0.1702261567115783,-17.900310516357422,-0.0076219737529754,-1.8477600812911987,0.0914666503667831,10.232258796691896,L,False,True,2,L,400,,0.254,LeftResponse,correct,True,15.0
80,102,696.4376666666667,11753,696.227,696.232,696.237,0.408298559912032,45.36311597688465,-0.4065165147185325,-45.27117156982422,-0.3353427946567535,-36.00522994995117,-0.0381056070327758,-2.8867483139038086,-0.0482750125229358,-4.134552955627441,L,False,True,2,R,200,,0.337,LeftResponse,incorrect,True,15.0
81,103,699.7646666666667,3164,699.652,699.655,699.658,0.3682845622741348,45.25535528963839,0.261701300740242,31.92155647277832,0.4115768671035766,51.36629867553711,0.2591253519058227,32.07898712158203,0.3709545880556106,47.74364471435547,L,False,True,2,R,100,,0.375,LeftResponse,incorrect,True,11.0
82,104,703.2576666666666,3183,702.846,702.852,702.857,0.6134716318554658,65.41151321176923,0.5640147775411606,57.57947540283203,0.6909614205360413,73.23104858398438,0.2413188219070434,31.036592483520508,0.1854774868115782,15.660507202148438,L,False,True,2,L,400,,0.314,LeftResponse,correct,True,14.0
83,105,706.4966666666667,11791,706.08,706.086,706.091,0.6231011417454422,77.23930061067311,-0.6224742196500301,-77.21493530273438,-0.5360872074961662,-53.51616668701172,0.0279442071914672,1.9399291276931765,0.1016293913125991,6.074662685394287,L,False,True,2,R,400,,0.264,RightResponse,correct,True,13.0
84,106,712.4466666666667,11805,712.335,712.34,712.345,0.4113228490103066,44.621460757756665,-0.365855723619461,-39.980987548828125,-0.1701826453208923,-20.32014274597168,0.1879789233207702,19.81402015686035,0.1854772800579667,11.110151290893556,L,False,True,2,L,100,,0.374,LeftResponse,correct,True,14.0
85,107,715.5356666666667,11820,715.522,715.526,715.529,0.3037231265067637,35.120007360179606,-0.2871078979223966,-32.822242736816406,-0.2768428325653076,-28.88468742370605,0.0990797281265258,12.494610786437988,0.1651487648487091,20.649377822875977,L,False,True,2,R,0,,0.374,LeftResponse,incorrect,True,12.0
86,108,718.9656666666667,11834,718.905,718.909,718.914,0.3757010714829297,45.402055560122285,-0.3734955489635467,-44.92573547363281,-0.1727495193481445,-21.501344680786133,-0.0406493544578552,-6.559340000152588,-0.0228671208024024,-2.4253008365631104,L,False,True,2,R,50,,0.315,LeftResponse,incorrect,True,17.0
87,109,722.9716666666667,3254,722.758,722.761,722.765,0.2985794878295317,36.52737547254775,0.2972688265144825,36.33286666870117,0.4471282362937927,52.61131286621094,0.0279455780982971,3.76456618309021,0.0381119223311543,6.513673782348633,L,False,True,2,L,200,,0.29,LeftResponse,correct,True,18.0
88,110,727.0096666666667,11862,726.946,726.95,726.955,0.3458596150621627,38.86120695782422,-0.3328386396169662,-37.46459579467773,-0.1473397612571716,-20.27646255493164,0.0940069854259491,10.324604988098145,0.114335473626852,8.823445320129395,L,False,True,2,R,50,,0.328,LeftResponse,incorrect,True,20.0
89,111,729.9536666666667,7440,729.884,729.894,729.901,0.9994219587848792,89.44191036132099,0.3023526631295681,35.340057373046875,0.2667350172996521,22.51596069335937,0.9525896906852722,82.16407775878906,1.0162901282310486,80.75009155273438,L,False,True,2,L,50,,0.241,LeftResponse,correct,True,23.0
90,112,733.6626666666667,11891,733.55,733.555,733.561,0.4560978388054297,45.90436976359555,-0.4547086358070373,-45.88678741455078,-0.1752645373344421,-26.416549682617188,0.0355709865689277,-1.270395278930664,0.2083292603492736,9.099833488464355,L,False,True,2,L,100,,0.399,LeftResponse,correct,True,13.0
91,113,737.4266666666666,3311,737.365,737.371,737.376,0.5944581864519641,58.69844445382678,0.5818134620785713,57.23458099365234,0.7189629971981049,70.85758972167969,0.1219574958086013,13.027283668518066,0.1702330186963081,9.90909194946289,L,False,True,2,L,50,,0.222,LeftResponse,correct,True,22.0
92,114,741.0616666666667,11920,741.0,741.003,741.007,0.3055634805329854,35.547041972953295,-0.3048868924379349,-35.47783660888672,-0.0355649590492248,-6.350829124450684,0.0203229784965515,2.217048168182373,0.1499050855636596,15.822002410888672,L,False,True,2,R,50,,0.238,LeftResponse,incorrect,True,21.0
93,115,744.8876666666666,3341,744.676,744.68,744.683,0.2723855589740143,33.93633071545477,0.259160578250885,31.45960807800293,0.4318181276321411,48.83968734741211,0.0838432312011718,12.726649284362791,0.0787578523159027,9.099894523620604,L,False,True,2,R,200,,0.36,LeftResponse,incorrect,True,17.0
94,116,750.2836666666667,11945,749.87,749.875,749.88,0.5247341188808836,62.76895186244084,-0.5157773047685623,-62.64165878295898,-0.2056707143783569,-28.36905670166016,0.0965384244918823,3.995485305786133,0.2108759582042694,21.410734176635746,L,False,True,2,R,400,,0.358,LeftResponse,incorrect,True,12.0
95,117,753.1186666666666,3371,753.105,753.109,753.114,0.4679636280038341,46.87495449141952,0.3506155014038086,36.37811279296875,0.4520711302757263,50.7711067199707,0.3099334239959717,29.561702728271484,0.3353758528828621,35.4314079284668,L,False,True,2,R,0,,0.398,LeftResponse,incorrect,True,15.0
96,118,756.7156666666667,11973,756.706,756.71,756.715,0.3203606170580429,35.486269686296986,-0.3149857521057129,-35.332218170166016,-0.3275734186172485,-37.398136138916016,-0.0584371536970138,-3.302982807159424,0.0813018679618835,8.407379150390625,L,False,True,2,L,0,,0.244,LeftResponse,correct,True,18.0
97,119,760.0916666666667,3393,759.677,759.681,759.687,0.6899742540355137,77.24067068418087,0.6808584481477737,76.51608276367188,0.4521045088768005,48.99698638916016,0.1117866039276123,10.55510711669922,-0.022866815328598,-2.3790690898895264,L,False,True,2,L,400,,0.365,LeftResponse,correct,True,15.0
98,120,877.3576666666667,12268,877.298,877.302,877.308,0.3342105788783031,36.23797741148547,-0.3328171968460083,-36.21488952636719,-0.2744053304195404,-26.44733428955078,-0.0304864645004272,-1.2933613061904907,-0.0355706810951232,4.111396789550781,L,False,True,3,R,50,,0.315,RightResponse,correct,True,24.0
99,121,880.3386666666667,7746,880.228,880.232,880.238,0.401799060496359,44.48267387813338,-0.1346606761217117,-16.23780059814453,-0.0177854001522064,-6.998683929443359,0.3785617351531982,41.41306686401367,0.4065190181136131,44.04727935791016,L,False,True,3,L,100,,0.309,LeftResponse,correct,True,12.0
100,122,883.2826666666667,3706,882.871,882.876,882.879,0.4023345828581222,44.26229974969995,0.3557049706578254,39.63579559326172,0.4497094713151455,49.61349105834961,0.1880082190036773,19.70164680480957,0.1981787234544754,22.52029609680176,L,False,True,3,L,400,,0.215,LeftResponse,correct,True,14.0
101,123,886.9086666666667,3715,886.795,886.8,886.803,0.271805226925633,30.80758195087586,0.2540790662169456,28.456867218017575,0.3531602695584297,39.56584548950195,0.0965500362217426,11.80312728881836,0.1117902100086212,13.534911155700684,L,False,True,3,R,100,,0.246,RightResponse,correct,True,11.0
102,124,891.3636666666666,3725,890.953,890.958,890.962,0.3958532621911229,45.91344289024654,0.3175939992070198,35.84779739379883,0.3480846285820007,38.48103332519531,0.2362918891012668,28.6876220703125,0.1727716028690338,16.699710845947266,L,False,True,3,L,400,,0.331,LeftResponse,correct,True,13.0
103,125,896.0636666666667,12305,895.852,895.857,895.861,0.3280644507805272,36.02793647338433,-0.3252087086439132,-35.56965255737305,-0.2083361148834228,-23.120166778564453,0.0431923568248748,5.728178024291992,0.1753142112866044,22.820880889892575,L,False,True,3,R,200,,0.364,LeftResponse,incorrect,True,20.0
104,127,902.0846666666666,12323,902.073,902.078,902.082,0.3679946207785424,39.53942226326598,-0.3633251041173935,-39.26591110229492,-0.2743985652923584,-33.722373962402344,-0.0584372282028198,-4.642643451690674,-0.0660602748394012,-6.097873687744141,L,False,True,3,L,0,,0.296,RightResponse,incorrect,True,17.0
105,128,905.9936666666666,12331,905.783,905.787,905.791,0.3498869823843037,41.397834043008,-0.348074123263359,-41.22837448120117,-0.1778440475463867,-20.648366928100582,0.0355711281299591,3.7418980598449703,-0.0050815045833587,0.9470078349113464,L,False,True,3,L,200,,0.203,LeftResponse,correct,True,23.0
106,129,910.3656666666667,12340,910.253,910.258,910.261,0.3094291884786683,34.900195195346114,-0.2616714239120483,-29.23869514465332,-0.1651490628719329,-16.768964767456055,0.1651498973369598,19.055768966674805,0.190558161586523,24.206663131713867,L,False,True,3,R,100,,0.343,LeftResponse,incorrect,True,10.0
107,131,917.4136666666667,12351,917.401,917.404,917.408,0.2563514247965324,29.55273776133981,-0.2489931955933571,-28.82596778869629,-0.2032629549503326,-25.176891326904297,0.0609790254384279,6.513669490814209,0.0304893553256988,3.2106220722198486,L,False,True,3,L,0,,0.271,RightResponse,incorrect,True,20.0
108,132,920.3446666666666,12358,920.324,920.331,920.334,0.487885089489423,52.23713707779915,-0.4268510043621063,-42.777462005615234,-0.0813053399324417,-8.176724433898926,-0.2362838983535766,-29.980113983154297,-0.4751119092106819,-49.01291275024414,L,False,True,3,R,0,,0.359,RightResponse,correct,True,23.0
109,133,923.3876666666666,12368,923.327,923.332,923.336,0.4670743321540613,49.26819804274092,-0.4141457974910736,-43.72436141967773,-0.2489906847476959,-29.541696548461918,0.2159668728709221,22.70540809631348,0.170232143253088,18.270523071289062,L,False,True,3,L,50,,0.291,LeftResponse,correct,True,23.0
110,134,926.7396666666667,3818,926.526,926.53,926.533,0.3312775995035511,39.61691913629438,0.2185077220201492,25.01520729064941,0.3709545135498047,41.85368347167969,0.2489964324049651,30.720346450805664,0.1626085191965103,17.20784568786621,L,False,True,3,L,200,,0.388,RightResponse,incorrect,True,21.0
111,135,930.3326666666667,12384,930.32,930.325,930.33,0.3539243614689038,37.69603272529263,-0.3506166040897369,-37.394527435302734,-0.2413584887981414,-26.65336227416992,0.048274740576744,4.758172035217285,0.1270371824502945,7.945622444152832,L,False,True,3,L,0,,0.304,LeftResponse,correct,True,22.0
112,136,935.0376666666667,12391,934.975,934.978,934.981,0.1954894489879805,23.81787642119575,-0.1930971592664718,-23.53661727905273,-0.1524453908205032,-17.438819885253906,0.0304895350709557,3.6495046615600586,0.1219577267765998,14.690360069274902,L,False,True,3,R,50,,0.326,RightResponse,correct,True,22.0
113,138,941.2446666666667,12401,941.134,941.138,941.142,0.2756494803117184,31.477864477001017,-0.2718293666839599,-31.109092712402344,-0.210873007774353,-24.18225479125977,0.045732170343399,4.804196357727051,0.0533546507358551,5.843606948852539,L,False,True,3,R,100,,0.271,LeftResponse,incorrect,True,13.0
114,139,945.1126666666667,12412,945.099,945.103,945.107,0.2656596682496976,30.06938003555909,-0.2210488691926002,-23.88344955444336,-0.1803962253034114,-19.310022354125977,0.14735147356987,18.268783569335938,0.1346523463726043,15.982728958129885,L,False,True,3,L,0,,0.386,LeftResponse,correct,True,20.0
115,140,948.6346666666667,12421,948.574,948.579,948.58,0.221842948973686,28.846346174207586,-0.2083369195461273,-19.6325740814209,-0.2311917245388031,-26.81427001953125,0.076223500072956,21.13465690612793,0.1168747842311859,19.263471603393555,L,False,True,3,R,50,,0.339,RightResponse,correct,True,21.0
116,142,955.8336666666667,12438,955.823,955.826,955.83,0.2562263063803921,30.123850999140465,-0.2362900227308273,-27.11678695678711,-0.3226739391684532,-37.11792755126953,-0.0990905910730362,-13.11968994140625,-0.0965334773063659,-11.916585922241213,L,False,True,3,R,0,,0.297,LeftResponse,incorrect,True,19.0
117,143,961.4126666666667,3891,961.001,961.006,961.01,0.4291587755522527,49.17505951472465,0.4039837941527366,46.219085693359375,0.576752096414566,56.54365158081055,0.1448252350091934,16.79233741760254,0.3175934553146362,31.158750534057617,L,False,True,3,L,400,,0.399,LeftResponse,correct,True,11.0
118,144,964.3056666666666,12456,964.294,964.298,964.303,0.3690956350143881,42.1159291694003,-0.3582226037979126,-41.29616165161133,-0.3429672718048095,-37.34532165527344,0.0889278016984462,8.26913070678711,0.1626085638999939,10.625029563903809,L,False,True,3,R,0,,0.345,RightResponse,correct,True,22.0
119,145,968.5486666666667,3909,968.478,968.48,968.483,0.1574847419027802,20.35957296234931,0.1499032080173492,19.60981559753418,0.3175945989787578,41.16021347045898,0.0482749640941619,5.474243640899658,0.0584370344877243,7.252660751342773,L,False,True,3,L,50,,0.354,LeftResponse,correct,True,20.0
120,146,971.6206666666667,16328,971.404,971.41,971.412,0.3252323788821641,40.19894503225366,-0.1575280651450157,-31.02061653137207,-0.1194098591804504,-37.37080383300781,-0.2845364809036255,-25.56709861755371,-0.2947190552949905,-25.291587829589844,L,False,True,3,R,200,,0.238,RightResponse,correct,True,23.0
121,147,974.9936666666666,12487,974.58,974.586,974.591,0.5411786033896262,57.26636776459178,-0.500532403588295,-55.78155517578125,-0.3582385629415512,-43.60745620727539,-0.20577073097229,-12.955885887145996,-0.1803794801235199,-15.658920288085938,L,False,True,3,R,400,,0.29,LeftResponse,incorrect,True,10.0
122,148,978.3656666666667,3932,978.246,978.249,978.252,0.1959699751357031,23.299178738587543,0.1905588975641876,22.58989524841309,0.2693223336245864,33.954010009765625,0.0457333326339721,5.705117225646973,0.0304885804653167,3.764878273010254,L,False,True,3,L,100,,0.267,RightResponse,incorrect,True,16.0
123,150,985.9136666666667,12501,985.705,985.707,985.711,0.1601504464081933,20.232386405152265,-0.1600698195397853,-20.072242736816406,-0.2489912509918213,-27.139646530151367,-0.0050811767578125,-2.540576934814453,-0.0152437388896942,-0.8776683211326599,L,False,True,3,R,200,,0.393,LeftResponse,incorrect,True,22.0
124,151,989.4986666666666,3952,989.436,989.44,989.445,0.3137503281456739,36.89399395243179,0.3125031143426895,36.72435760498047,0.4471472203731537,48.38738250732422,0.0279476642608642,3.533885717391968,0.1676666736602783,17.96767234802246,L,False,True,3,L,50,,0.362,LeftResponse,correct,True,19.0
125,152,992.5796666666666,3957,992.518,992.521,992.525,0.2237187275626938,26.57226972181404,0.2235888668801635,26.539640426635746,0.2210451662540435,29.6574821472168,-0.0076215267181396,1.3164361715316772,0.0203245878219604,3.579909086227417,L,False,True,3,L,50,,0.399,RightResponse,incorrect,True,18.0
126,153,996.4136666666667,3963,996.204,996.207,996.213,0.3176693166489922,33.595499648239134,0.3150577694177627,33.58462905883789,0.1270346343517303,12.310799598693848,-0.0406496822834014,0.8545686602592468,-0.2006768584251403,-15.010046005249023,L,False,True,3,L,200,,0.258,LeftResponse,correct,True,25.0
127,154,1000.8186666666667,3972,1000.409,1000.411,1000.415,0.2134526467441047,24.883814600639244,0.2108823657035827,24.34503746032715,0.1321212686598301,16.861631393432617,0.0330251455307006,5.15008544921875,0.0584361553192138,6.6520280838012695,L,False,True,3,R,400,,0.221,RightResponse,correct,True,13.0
128,156,1007.3806666666667,12543,1006.97,1006.974,1006.979,0.351951227692783,41.02652267396781,-0.3506283015012741,-40.9990463256836,-0.2337527349591255,-26.447322845458984,-0.030487060546875,-1.5012538433074951,-0.0101625621318817,0.1385798156261444,L,False,True,3,R,400,,0.302,LeftResponse,incorrect,True,12.0
129,157,1011.3896666666667,3997,1010.977,1010.981,1010.985,0.3173406302550634,35.7556834146896,0.3074111640453338,34.66753387451172,0.4649629145860672,52.45563125610352,0.0787619948387146,8.753912925720215,0.1930865347385406,22.21880149841309,L,False,True,3,R,400,,0.365,RightResponse,correct,True,15.0
130,158,1014.6036666666666,12559,1014.492,1014.497,1014.502,0.5171531660131977,54.4514792108586,-0.5157473534345627,-54.230918884277344,-0.353163830935955,-38.64247894287109,-0.0381059646606445,-4.896021366119385,-0.0254034996032714,-1.6165868043899536,L,False,True,3,L,100,,0.334,LeftResponse,correct,True,17.0
131,159,1017.5596666666667,16401,1017.501,1017.506,1017.512,0.6080260678779948,61.55057275760368,-0.1499032080173492,-18.385826110839844,0.0127039104700088,0.2309802174568176,-0.5892577767372131,-58.74039840698242,-0.3785230219364166,-36.18880081176758,L,False,True,3,R,50,,0.218,RightResponse,correct,True,21.0
132,160,1070.4186666666665,12866,1070.405,1070.411,1070.416,0.3913126424548037,39.12762638527053,-0.3683339357376098,-36.25585174560547,-0.1651507578790187,-18.06266021728516,0.1321200057864189,14.713407516479492,-0.0076223686337471,-1.870948910713196,L,False,True,4,R,0,,0.33,RightResponse,correct,True,21.0
133,161,1073.7156666666665,8215,1073.296,1073.3,1073.306,0.3513352293526497,34.11924005484304,-0.063513159751892,-9.792472839355469,0.0965469777584075,4.827324867248535,0.3455467000603676,32.68378829956055,0.2769425734877586,28.36416244506836,L,False,True,4,L,400,,0.211,LeftResponse,correct,True,14.0
134,162,1077.6916666666666,12881,1077.629,1077.633,1077.636,0.2411625195265218,28.879723661904155,-0.2312000393867492,-27.369792938232425,-0.1372027974575758,-15.56813144683838,0.0685995817184448,9.215903282165527,0.0990882813930511,11.87212371826172,L,False,True,4,R,50,,0.32,RightResponse,correct,True,20.0
135,163,1081.3136666666664,12889,1081.201,1081.206,1081.21,0.3275996255685983,33.37242072855758,-0.2997757196426391,-31.386240005493164,-0.1778523325920105,-19.65613174438477,0.132121279835701,11.341181755065918,0.1880137026309967,20.55680656433105,L,False,True,4,L,100,,0.395,LeftResponse,correct,True,16.0
136,164,1084.7906666666665,12899,1084.38,1084.383,1084.385,0.2035332065138648,26.072267890497024,-0.1854612529277801,-22.61104965209961,-0.190559446811676,-22.474464416503903,0.0838444381952285,12.9808931350708,0.2540760338306427,34.43880081176758,L,False,True,4,R,400,,0.371,RightResponse,correct,True,13.0
137,165,1087.9126666666666,12906,1087.903,1087.907,1087.912,0.385938431611896,41.39770252672541,-0.3607270121574402,-38.86726760864258,-0.2744041532278061,-29.44994735717773,0.1372023895382881,14.251501083374023,0.1803832948207855,17.50721549987793,L,False,True,4,L,0,,0.372,RightResponse,incorrect,True,20.0
138,166,1091.1646666666666,12913,1091.101,1091.106,1091.111,0.4127007688954218,46.73659180400957,-0.4115730226039886,-46.65433120727539,-0.2032613679766655,-23.513648986816406,-0.0304888784885406,-2.7717130184173584,-0.030487835407257,-1.755355715751648,L,False,True,4,L,50,,0.236,LeftResponse,correct,True,19.0
139,167,1094.9656666666665,12926,1094.856,1094.86,1094.862,0.2066025435702337,26.198421998075617,-0.1981663703918457,-22.7960147857666,-0.3684128746390342,-43.40108108520508,-0.0584354400634765,-12.911197662353516,0.0025407522916793,-1.247281193733215,L,False,True,4,R,100,,0.326,RightResponse,correct,True,15.0
140,168,1098.1506666666667,4387,1097.94,1097.943,1097.946,0.2069126658996351,25.368506815816776,0.1880163550376892,23.21331214904785,0.2185080870985984,26.955486297607425,0.0863869292661547,10.232461929321287,0.1549786627292633,19.35500907897949,L,False,True,4,R,200,,0.357,RightResponse,correct,True,24.0
141,169,1101.9186666666665,4398,1101.805,1101.81,1101.814,0.3786403404884632,41.93041261103944,0.3708887100219726,41.33827972412109,0.4547983855009079,49.38347244262695,0.0762238297611475,7.021832466125488,0.1117940172553062,12.49598503112793,L,False,True,4,L,100,,0.384,LeftResponse,correct,True,14.0
142,170,1105.1326666666666,4406,1105.069,1105.074,1105.078,0.3599521284424812,41.18415304764869,0.3404490053653717,39.7961311340332,0.5081554055213928,56.336029052734375,0.1168760433793068,10.60200023651123,0.1905484199523925,21.68777084350586,L,False,True,4,L,50,,0.374,RightResponse,incorrect,True,18.0
143,171,1109.2336666666665,12950,1109.173,1109.177,1109.181,0.2520487352785805,27.654039166821097,-0.2439135387539863,-27.0245304107666,-0.1372025730088353,-17.600727081298828,0.063519686460495,5.866910457611084,0.0889202952384948,11.82526969909668,L,False,True,4,L,50,,0.391,LeftResponse,correct,True,21.0
144,172,1112.9766666666665,4419,1112.566,1112.57,1112.575,0.3079380337434101,32.74379408014504,0.3048936836421489,32.47579574584961,0.439551193267107,48.944244384765625,0.0431934520602226,4.180758476257324,0.0101615190505981,2.170861005783081,L,False,True,4,L,400,,0.221,RightResponse,incorrect,True,12.0
145,173,1116.4106666666667,4428,1116.001,1116.006,1116.01,0.3939331171762568,46.21949521162946,0.3912696167826652,45.68659591674805,0.503071591258049,49.221717834472656,0.0457316935062408,6.998334884643555,0.0787602066993713,12.033443450927734,L,False,True,4,R,400,,0.37,RightResponse,correct,True,15.0
146,174,1119.8666666666666,4439,1119.453,1119.457,1119.459,0.2372463785763436,30.0507358182104,0.1727729775011539,21.13465118408203,0.2820255011320114,33.0993537902832,0.1625894904136657,21.36289405822754,0.1092420816421508,15.681841850280762,L,False,True,4,R,400,,0.222,RightResponse,correct,True,14.0
147,175,1122.9806666666666,12975,1122.768,1122.774,1122.778,0.4460800643209394,46.73086098973912,-0.3734882697463035,-40.16667938232422,-0.2032555639743805,-20.949182510375977,0.2439137883484363,23.883283615112305,0.1244814395904541,13.25662899017334,L,False,True,4,L,200,,0.387,RightResponse,incorrect,True,23.0
148,176,1126.3486666666665,16704,1125.938,1125.941,1125.948,0.3623657024858323,38.990975725148736,-0.0813053445890545,-20.049165725708008,0.1092540419194847,6.19028377532959,-0.3531265258789062,-33.44139862060547,-0.3099340796470642,-30.484861373901367,L,False,True,4,L,400,,0.293,RightResponse,incorrect,True,13.0
149,177,1130.1916666666666,4460,1129.779,1129.784,1129.789,0.4504220327581962,52.9248112247923,0.4116070121526718,47.69747924804688,0.4522511186078191,48.66679000854492,0.1829198598861694,22.93438720703125,0.0381097495555877,6.559447288513184,L,False,True,4,L,400,,0.226,LeftResponse,correct,True,16.0
150,178,1134.3056666666666,12997,1134.093,1134.097,1134.101,0.2897759732021577,32.421724542763776,-0.2565861344337463,-29.007360458374023,-0.2007202431559562,-21.78125,0.134661316871643,14.482446670532228,0.0660578310489654,8.153303146362305,L,False,True,4,R,200,,0.281,RightResponse,correct,True,26.0
151,179,1137.7316666666666,4480,1137.523,1137.526,1137.531,0.3013477275679545,33.17414590694407,0.2998014241456985,32.821041107177734,0.2057998180389404,23.72124290466309,-0.0304886698722839,4.827340602874756,-0.0787591934204101,-2.9563143253326416,L,False,True,4,L,200,,0.252,RightResponse,incorrect,True,25.0
152,180,1140.9336666666666,13017,1140.873,1140.877,1140.881,0.4040351743479536,44.790960874807645,-0.3277352452278137,-37.716041564941406,-0.2693110704421997,-29.517963409423828,0.2362922579050064,24.160512924194336,0.0787564516067504,5.450603485107422,L,False,True,4,R,50,,0.361,RightResponse,correct,True,20.0
153,181,1143.8476666666666,4500,1143.788,1143.793,1143.797,0.4060950084461153,46.53514539966875,0.3938208967447281,44.16338348388672,0.4827480614185333,51.92438507080078,0.099087119102478,14.666810035705566,0.1930717229843139,21.57042121887207,L,False,True,4,R,50,,0.265,RightResponse,correct,True,19.0
154,182,1146.9416666666666,4507,1146.828,1146.833,1146.837,0.356252661532468,38.3672637126498,0.3328316956758499,36.170440673828125,0.4802070409059524,51.5778923034668,-0.1270394474267959,-12.79633331298828,-0.1117927432060241,-13.30422019958496,L,False,True,4,R,100,,0.255,RightResponse,correct,True,13.0
155,183,1150.7256666666665,13041,1150.716,1150.719,1150.724,0.2527144602387288,27.898335314600608,-0.2489963471889495,-27.07088851928711,-0.2312096357345581,-23.09792137145996,-0.0431904792785644,-6.744190692901611,0.0355685949325561,3.164224624633789,L,False,True,4,L,0,,0.35,RightResponse,incorrect,True,23.0
156,184,1154.3146666666667,13052,1154.205,1154.207,1154.209,0.1667239716790192,21.461076511735723,-0.1651486605405807,-21.29608726501465,-0.1956391036510467,-27.301746368408203,0.0228648781776428,2.656025648117065,0.0127032697200775,1.639876365661621,L,False,True,4,L,100,,0.269,RightResponse,incorrect,True,12.0
157,185,1157.6366666666665,13058,1157.425,1157.429,1157.433,0.3102857822782639,34.41917754279131,-0.2972696051001549,-33.538124084472656,-0.1600558757781982,-18.70785903930664,0.0889272093772888,7.73783016204834,0.1803891062736511,16.837892532348633,L,False,True,4,L,200,,0.273,RightResponse,incorrect,True,28.0
158,186,1161.4966666666667,4547,1161.433,1161.436,1161.44,0.2332136025308642,26.66686352052033,0.2312120199203491,26.60902214050293,0.3633306361734867,42.47710418701172,0.0304891169071197,1.7554346323013306,-0.0101622343063354,0.4850174784660339,L,False,True,4,R,50,,0.357,RightResponse,correct,True,18.0
159,188,1168.3696666666665,13088,1168.357,1168.361,1168.366,0.3431923571340635,37.85780528705063,-0.3226800709962845,-35.89442443847656,-0.2642350941896438,-28.756372451782227,0.1168698668479919,12.033441543579102,0.1219382286071777,14.064558029174805,L,False,True,4,L,0,,0.378,LeftResponse,correct,True,26.0
160,189,1172.0916666666665,4567,1171.982,1171.986,1171.991,0.3155583792961537,36.07165202790067,0.3074354380369186,35.38627243041992,0.4090641364455223,44.76386260986328,0.0711374878883361,6.998271465301514,0.1930801272392273,17.806865692138672,L,False,True,4,L,100,,0.277,RightResponse,incorrect,True,15.0
161,190,1175.6436666666666,13105,1175.532,1175.536,1175.539,0.3089681184371269,34.6035368390226,-0.2489970475435257,-27.971738815307617,-0.1651494204998016,-16.630414962768555,0.1829255819320678,20.37121963500977,0.0762140750885009,9.39974594116211,L,False,True,4,R,100,,0.373,RightResponse,correct,True,18.0
162,191,1178.7616666666665,13112,1178.751,1178.755,1178.76,0.3682278415084654,39.21524173467461,-0.3328386396169662,-36.4251708984375,-0.2388269305229187,-26.261775970458984,0.1575124859809875,14.527288436889648,0.2210080623626709,17.82865333557129,L,False,True,4,L,0,,0.349,LeftResponse,correct,True,25.0
163,192,1183.3206666666665,8416,1183.2,1183.202,1183.207,0.2389507056538527,31.46959350938936,-0.0355705022811889,-11.571976661682127,-0.0406520515680313,-5.427977085113525,0.2362883388996124,29.26473426818848,0.2108510136604309,24.595577239990234,L,False,True,4,R,100,,0.346,RightResponse,correct,True,17.0
164,193,1186.3346666666666,13124,1186.325,1186.331,1186.335,0.4805945250903309,52.864537437001296,-0.4522504433989525,-50.37567901611328,-0.3734876662492752,-39.88947677612305,0.1626057624816894,16.0296688079834,0.1651237607002258,17.066747665405273,L,False,True,4,R,0,,0.218,RightResponse,correct,True,24.0
165,194,1189.4616666666666,8429,1189.451,1189.454,1189.459,0.3523236410755664,41.2235275376043,-0.1931000687181949,-23.97582244873047,-0.2337394058704376,-27.71620750427246,0.2946935892105102,33.534149169921875,0.3480505049228668,37.923221588134766,L,False,True,4,R,0,,0.388,RightResponse,correct,True,23.0
166,195,1193.6796666666667,13140,1193.266,1193.27,1193.274,0.2758131259441898,32.38684875486206,-0.2362915500998497,-28.73381233215332,-0.1117909252643585,-12.102996826171877,0.1422644853591919,14.942422866821287,0.1549563407897949,17.712766647338867,L,False,True,4,R,400,,0.312,RightResponse,correct,True,15.0
167,196,1196.8976666666665,4623,1196.688,1196.692,1196.696,0.2827413910285447,32.66810901188259,0.2820103764533996,32.38151931762695,0.2337473332881927,28.202110290527344,0.0203185081481933,4.317702293395996,0.0279442071914672,2.240154981613159,L,False,True,4,L,200,,0.273,RightResponse,incorrect,True,30.0
168,197,1199.9706666666666,13159,1199.958,1199.964,1199.969,0.556946503954231,56.77591660317142,-0.5055639147758484,-51.018680572509766,-0.4344700686633587,-45.87239837646485,-0.2336547374725341,-24.91182327270508,-0.3099066019058227,-25.332616806030277,L,False,True,4,R,0,,0.297,LeftResponse,incorrect,True,22.0
169,198,1203.3846666666666,13170,1203.173,1203.179,1203.183,0.4448855596493076,45.392332354626966,-0.4141251742839813,-43.052734375,-0.3811138528399169,-37.60306930541992,-0.162553071975708,-14.38491916656494,-0.0965381264686584,-13.25657558441162,L,False,True,4,R,200,,0.221,RightResponse,correct,True,33.0
170,199,1206.8686666666665,4659,1206.807,1206.81,1206.812,0.2123330269027271,27.1816008400786,0.1981817632913589,24.091327667236328,0.1931002363562584,25.22314071655273,0.0762187838554382,12.587587356567385,0.1447870135307312,18.981590270996094,L,False,True,4,L,50,,0.327,RightResponse,incorrect,True,17.0
171,200,1244.6136666666666,13351,1244.555,1244.56,1244.564,0.4091837571013384,43.026937868773445,-0.3836494013667106,-40.23579025268555,-0.3658731132745743,-39.63629531860352,0.1422831118106842,15.244624137878418,0.2210359573364257,24.29778480529785,L,False,True,5,L,50,,0.39,RightResponse,incorrect,True,20.0
172,201,1247.4786666666666,13362,1247.457,1247.463,1247.465,0.4369118694742724,47.82761291129376,-0.2464537471532821,-20.83412742614746,-0.1778549505397677,-17.877912521362305,0.360766589641571,43.051361083984375,0.41159438341856,47.97275924682617,L,False,True,5,R,0,,0.293,RightResponse,correct,True,25.0
173,202,1250.8426666666667,13370,1250.432,1250.435,1250.44,0.2823447551982252,34.73905437512775,-0.2718613557517528,-32.36001205444336,-0.2591590387746691,-30.07352828979492,0.0762231200933456,12.634536743164062,0.0203259736299514,2.4945521354675293,L,False,True,5,R,400,,0.272,LeftResponse,incorrect,True,14.0
174,203,1254.7766666666666,13377,1254.667,1254.671,1254.675,0.2957483339181099,34.1724484975798,-0.2921907901763916,-33.792510986328125,-0.2337513212114572,-26.493335723876957,0.0457342229783535,5.081578254699707,0.0050813257694244,-0.2078714221715927,L,False,True,5,L,100,,0.296,LeftResponse,correct,True,16.0
175,204,1258.2036666666665,8641,1258.133,1258.137,1258.142,0.3114400087065335,36.974414398682285,-0.2058021053671836,-23.8831844329834,-0.1524454355239868,-15.822014808654783,0.2337528020143509,28.225889205932617,0.1803842186927795,17.876802444458008,L,False,True,5,R,50,,0.225,RightResponse,correct,True,23.0
176,205,1261.6886666666664,13397,1261.477,1261.481,1261.486,0.3609313285152782,41.13912816254682,-0.3607882240321487,-41.11419677734375,-0.2032629000023007,-20.28010368347168,0.010162740945816,-1.4320228099822998,0.0660599321126937,4.781264305114746,L,False,True,5,R,200,,0.341,RightResponse,correct,True,32.0
177,206,1265.1976666666665,13404,1265.188,1265.191,1265.195,0.2376117848006855,28.03405397365232,-0.2159661836922168,-26.05453872680664,-0.167690247297287,-18.38584899902344,0.099085658788681,10.347424507141112,0.017785295844078,1.4551613330841064,L,False,True,5,R,0,,0.356,RightResponse,correct,True,24.0
178,207,1268.3366666666666,13411,1268.123,1268.129,1268.134,0.4500251504828201,46.41285202643673,-0.4395479680970311,-44.76323318481445,-0.3328404128551483,-38.04216384887695,0.0965412855148315,12.26400375366211,0.0660582482814788,4.203718185424805,L,False,True,5,L,200,,0.328,LeftResponse,correct,True,31.0
179,208,1271.5096666666666,13416,1271.496,1271.502,1271.506,0.3759328662777849,38.72627857346903,-0.3709545284509659,-37.95009613037109,-0.2286709621548652,-29.565534591674805,0.0609775185585022,7.714587211608887,0.0965432524681091,8.106866836547852,L,False,True,5,L,0,,0.332,RightResponse,incorrect,True,23.0
180,209,1275.4276666666665,13427,1275.019,1275.021,1275.024,0.1628090244895637,21.53561191479508,-0.1499067842960357,-20.14155960083008,-0.1321205496788025,-15.937621116638184,0.0635195598006248,7.622345924377441,-0.0101628005504608,-0.4388489425182342,L,False,True,5,L,400,,0.26,LeftResponse,correct,True,17.0
181,210,1278.4746666666665,4936,1278.364,1278.368,1278.373,0.4022470328475845,43.15797714792957,0.4014438390731811,43.10097885131836,0.4344725906848907,45.179664611816406,0.025407075881958,2.217343807220459,0.055896446108818,8.89259147644043,L,False,True,5,L,100,,0.329,RightResponse,incorrect,True,15.0
182,211,1282.1506666666667,13442,1282.143,1282.148,1282.153,0.4416719944668819,43.82135261953846,-0.4395549297332763,-43.655311584472656,-0.3048943281173706,-33.56148147583008,0.0431927591562271,3.8111305236816406,0.0279449224472045,0.4388074874877929,L,False,True,5,L,0,,0.383,LeftResponse,correct,True,26.0
183,212,1285.5776666666666,13453,1285.368,1285.372,1285.376,0.2842618878648426,33.277999331032426,-0.2820275351405144,-33.09955596923828,-0.2134249694645404,-24.368328094482425,0.0355709195137023,3.441603422164917,0.1499058753252029,16.12240219116211,L,False,True,5,L,200,,0.355,LeftResponse,correct,True,30.0
184,213,1289.3116666666665,13463,1289.099,1289.102,1289.106,0.2394767814658695,27.45884130986017,-0.2286681458353996,-26.169832229614254,-0.2058013454079628,-23.305662155151367,-0.0711337327957153,-8.314315795898438,-0.0406491756439209,-4.0187177658081055,L,False,True,5,R,200,,0.292,RightResponse,correct,True,29.0
185,214,1292.7346666666665,13471,1292.325,1292.33,1292.335,0.5062442982459704,53.89545293344673,-0.4700418934226036,-50.74616241455078,-0.3633240535855293,-34.90049743652344,0.1879997551441192,18.153425216674805,0.340437114238739,32.33495330810547,L,False,True,5,L,400,,0.343,LeftResponse,correct,True,16.0
186,215,1296.5436666666665,13482,1296.482,1296.485,1296.489,0.2547974383416226,29.542586351120327,-0.2515338733792305,-29.26477813720703,-0.1575266122817993,-19.79476547241211,-0.0406502783298492,-4.041926383972168,0.0431888103485107,1.2702484130859375,L,False,True,5,R,50,,0.387,RightResponse,correct,True,22.0
187,216,1300.5406666666665,13493,1300.132,1300.137,1300.143,0.5564623975074064,60.15092522983407,-0.5564102046191692,-60.121829986572266,-0.2998125925660133,-27.117128372192383,-0.0076212882995605,1.8706589937210083,0.1041498184204101,7.990358352661133,L,False,True,5,R,400,,0.324,LeftResponse,incorrect,True,15.0
188,217,1303.6886666666664,13503,1303.679,1303.684,1303.69,0.5364674822260183,56.77251024407589,-0.5360823944211006,-56.772491455078125,-0.4090661555528641,-46.75045394897461,0.0203230381011962,-0.0461887083947658,0.0228648781776428,1.2471747398376465,L,False,True,5,L,0,,0.348,RightResponse,incorrect,True,25.0
189,219,1310.8036666666665,13518,1310.744,1310.749,1310.754,0.4901554187726187,51.55378424046548,-0.4471771866083145,-46.98139572143555,-0.3074350580573082,-32.75304412841797,0.2007109820842743,21.225954055786133,0.124497190117836,12.542126655578612,L,False,True,5,R,50,,0.253,RightResponse,correct,True,21.0
190,220,1313.7556666666665,13526,1313.692,1313.697,1313.703,0.3967605994814583,40.45367238188211,-0.3963618129491806,-40.44464492797852,-0.144824743270874,-16.122434616088867,-0.01778444647789,0.8545793294906616,0.0685957670211792,6.466966152191162,L,False,True,5,R,50,,0.206,RightResponse,correct,True,20.0
191,221,1317.5816666666665,13534,1317.47,1317.473,1317.477,0.2422168582022872,28.049896846790155,-0.2413624823093414,-27.993453979492188,-0.1295804865658283,-16.376571655273438,0.0203263014554977,1.7785520553588867,0.0431929379701614,3.672557592391968,L,False,True,5,L,100,,0.279,LeftResponse,correct,True,18.0
192,223,1323.6976666666665,13550,1323.636,1323.639,1323.644,0.3487633277238362,42.16168435904018,-0.332842469215393,-40.652530670166016,-0.1981804035604,-26.00827980041504,0.1041717305779457,11.179417610168455,0.0762220621109008,7.044785022735596,L,False,True,5,L,50,,0.25,LeftResponse,correct,True,22.0
193,224,1327.1326666666666,13556,1326.721,1326.726,1326.731,0.3623952443739858,37.71082045008897,-0.3531582653522491,-37.09443664550781,-0.185473084449768,-19.72522735595703,-0.0812991559505462,-6.790342330932617,0.0203259736299514,2.355966567993164,L,False,True,5,L,400,,0.278,LeftResponse,correct,True,18.0
194,225,1332.1036666666666,13564,1332.089,1332.092,1332.097,0.2732015210677969,32.18280149740537,-0.236261785030365,-27.182722091674805,-0.2972723245620727,-32.060157775878906,-0.1371839642524719,-17.228822708129883,-0.0990856885910034,-12.310650825500488,L,False,True,5,R,0,,0.266,RightResponse,correct,True,31.0
195,226,1335.3636666666666,13569,1335.251,1335.256,1335.26,0.3369238625892491,36.92172986427012,-0.3150553128216415,-34.18495559692383,-0.2515382766723633,-28.041095733642575,0.1194061934947967,13.950016021728516,0.2769457623362541,28.664701461791992,L,False,True,5,L,100,,0.386,LeftResponse,correct,True,17.0
196,227,1338.8566666666666,13579,1338.443,1338.448,1338.45,0.2531475252159338,28.779802992951424,-0.1981732845306396,-20.04839324951172,-0.1473650559782982,-12.54218578338623,-0.15751513838768,-20.64797782897949,-0.099087119102478,-16.768625259399414,L,False,True,5,L,400,,0.335,RightResponse,incorrect,True,17.0
197,228,1342.5996666666665,13585,1342.49,1342.494,1342.498,0.2571199692211699,27.15637511837354,-0.2515234053134918,-26.676746368408203,-0.3099757879972458,-34.87805938720703,-0.0533540546894073,-5.081329822540283,-0.030489508062601,-1.5706719160079956,L,False,True,5,R,100,,0.297,LeftResponse,incorrect,True,16.0
198,229,1345.7216666666666,13592,1345.511,1345.516,1345.521,0.4920630797970913,49.64026046271235,-0.4014390408992767,-41.714576721191406,-0.3277487605810165,-39.31132888793945,0.2845571488142013,26.90816879272461,0.317598432302475,31.89846420288086,L,False,True,5,R,200,,0.314,RightResponse,correct,True,28.0
199,230,1349.0356666666667,13605,1348.925,1348.929,1348.932,0.3161254196613572,36.64721676345409,-0.2947248071432113,-33.79176712036133,-0.279474213719368,-32.24343490600586,0.1143353357911109,14.182206153869627,0.175313975661993,20.626522064208984,L,False,True,5,R,100,,0.359,RightResponse,correct,True,19.0
200,231,1352.7876666666666,13614,1352.378,1352.382,1352.387,0.361791802338893,39.957815075432094,-0.355710044503212,-39.82107162475586,-0.1956390514969825,-23.606029510498047,0.0660580992698669,3.3029139041900635,-0.0127038657665252,-1.201092004776001,L,False,True,5,R,400,,0.366,RightResponse,correct,True,20.0
201,232,1356.2426666666665,13621,1356.13,1356.135,1356.14,0.3582810415675752,35.83471395696223,-0.3582450114190578,-35.82452392578125,-0.1778551982715726,-19.79505157470703,0.0050809979438781,-0.8545231819152832,0.0101631358265876,1.709254026412964,L,False,True,5,R,100,,0.384,RightResponse,correct,True,18.0
202,233,1359.4776666666667,13628,1359.466,1359.471,1359.475,0.3413996543196212,38.22233252990941,-0.3404529690742492,-38.1566162109375,-0.2464541047811508,-27.624982833862305,0.0254066884517669,-2.240389108657837,-0.0076220035552978,-4.480790615081787,L,False,True,5,R,0,,0.272,RightResponse,correct,True,30.0
203,234,1362.6546666666666,13637,1362.539,1362.545,1362.55,0.3663196033911436,37.4455223950418,-0.3353758528828621,-34.04585266113281,-0.2439138740301132,-26.146869659423828,0.1473536193370819,15.589966773986816,0.3023366034030914,29.1711483001709,L,False,True,5,R,100,,0.259,RightResponse,correct,True,17.0
204,235,1365.9346666666665,13644,1365.724,1365.729,1365.734,0.4115470374555631,44.26001571442849,-0.3861758410930633,-42.22087097167969,-0.2744052782654762,-32.98405838012695,0.1422644853591919,13.27957248687744,0.1676859855651855,12.772821426391602,L,False,True,5,L,200,,0.324,LeftResponse,correct,True,27.0
205,236,1369.9526666666666,13651,1369.884,1369.886,1369.888,0.1203855432317702,19.16723088621028,-0.1194164007902145,-19.125083923339844,-0.0965498723089695,-17.02325439453125,0.0152447447180747,1.2703955173492432,0.0431919693946838,7.645218849182129,L,False,True,5,L,50,,0.261,RightResponse,incorrect,True,21.0
206,237,1373.7456666666665,13662,1373.534,1373.539,1373.543,0.3602499356060025,39.30037412676527,-0.3531560897827148,-38.5030632019043,-0.2337472438812255,-25.82306289672852,-0.071139246225357,-7.876136779785156,-0.0279486924409866,0.4157666862010956,L,False,True,5,L,200,,0.37,LeftResponse,correct,True,26.0
207,238,1377.1426666666666,13671,1376.731,1376.737,1376.741,0.4563507278092913,49.90995334186603,-0.452258363366127,-49.15260696411133,-0.259159754961729,-25.061323165893555,-0.060978353023529,-8.661678314208984,-0.116875022649765,-11.59509563446045,L,False,True,5,R,400,,0.286,RightResponse,correct,True,19.0
208,239,1380.4026666666666,13678,1380.19,1380.194,1380.198,0.3220235183384604,37.593706730614144,-0.3175724744796753,-37.16181945800781,-0.2439159452915191,-27.232669830322266,-0.0533560663461685,-5.682073593139648,0.0127038210630416,2.7024524211883545,L,False,True,5,R,200,,0.283,RightResponse,correct,True,25.0
