,trialIndex,targetOnsetTime,Unnamed: 0,startTime,peakVelocityTime,stopTime,amplitude,peakVelocity,saccade_vec_left_x,peak_velocity_vec_left_x,saccade_vec_right_x,peak_velocity_vec_right_x,saccade_vec_left_y,peak_velocity_vec_left_y,saccade_vec_right_y,peak_velocity_vec_right_y,whichEye,otherEyeMissingData,isBinocular,blockId,arrowDirection,latency,blankDuration,fixationDurationInSec,response,result,isSaccade,blankDurationInFrameCount
0,0,174.09966666666668,6479,173.985,173.993,174.0,0.9035021142767558,92.07492286945728,-0.8968727886676788,-91.83599090576172,-0.6047024428844452,-76.06134033203125,0.1092486679553985,6.6288909912109375,0.1905524730682373,9.285160064697266,L,False,True,0,L,100,,0.357,LeftResponse,correct,True,8.0
1,1,178.86266666666668,6487,178.449,178.456,178.462,0.3812282174380174,35.71888801807884,-0.3810927271842956,-35.70752716064453,-0.2134228199720382,-17.900766372680664,-0.0101630240678787,-0.9008136987686156,0.0177835226058959,12.425532341003418,L,False,True,0,L,400,,0.295,LeftResponse,correct,True,8.0
2,4,198.73066666666668,6506,198.32,198.326,198.331,0.5758031661876506,61.68725158899059,-0.3658587336540222,-43.63055419921875,-0.1092516630887985,-13.904828071594238,-0.4446309404447675,-43.60839080810547,-0.439555361866951,-42.939300537109375,L,False,True,0,L,400,,0.271,LeftResponse,correct,True,7.0
3,5,202.13266666666667,640,201.721,201.727,201.733,0.5201306071579962,53.30313784113147,0.5030713826417923,52.01642227172852,0.515777513384819,54.395843505859375,-0.1321174949407577,-11.64114761352539,-0.1321193575859069,-11.063846588134766,L,False,True,0,R,400,,0.223,LeftResponse,incorrect,True,6.0
4,6,206.52866666666668,9348,206.418,206.422,206.426,0.359257455595942,40.65020689716141,-0.2870967835187912,-31.619977951049805,-0.195640193298459,-21.411828994750977,-0.2159660998731851,-25.546356201171875,-0.2032632753252983,-21.73531913757324,L,False,True,0,R,100,,0.327,LeftResponse,incorrect,True,7.0
5,7,210.13466666666667,9355,209.714,209.727,209.73,0.4281369716289944,37.38393267702736,0.0736801326274871,30.789077758789062,0.020325630903244,13.096288681030272,-0.4217493385076523,-21.203563690185547,-0.3557034432888031,-24.22972679138184,L,False,True,0,R,400,,0.222,RightResponse,correct,True,9.0
6,9,223.2026666666667,667,223.09,223.094,223.1,0.3131702447983527,35.2824565028551,0.3125099092721939,35.22385787963867,0.3557101488113403,40.32924270629883,0.0203263089060783,-2.03262710571289,-0.0381119209341704,-7.922657012939453,L,False,True,0,R,100,,0.314,LeftResponse,incorrect,True,10.0
7,10,226.35866666666666,6548,226.347,226.353,226.356,0.3521977235080287,37.5965699756792,-0.2439103424549102,-23.998483657836918,-0.058438241481781,-5.705236434936523,-0.2540688514709472,-28.94088554382324,-0.2312119156122207,-27.417442321777344,L,False,True,0,R,0,,0.324,LeftResponse,incorrect,True,8.0
8,11,231.1136666666667,676,231.101,231.107,231.113,0.2821203405587715,28.850824858907625,0.2820173501968384,28.779132843017575,0.2972612977027893,28.409610748291016,0.0076223844662308,2.0326356887817383,-0.0558974705636501,-7.275909900665283,L,False,True,0,R,0,,0.389,LeftResponse,incorrect,True,11.0
9,12,234.73966666666666,684,234.526,234.531,234.536,0.2795462928397624,33.93058236738883,0.2769361138343811,33.79122543334961,0.3277611956000328,35.94057846069336,-0.0381119232624769,-3.072052001953125,0.0228669643402099,5.081559658050537,L,False,True,0,R,200,,0.252,LeftResponse,incorrect,True,8.0
10,13,239.77766666666668,3952,239.72,239.726,239.732,0.3658757292171811,37.1165632732578,0.0609757602214813,-0.3002523779869079,0.1346618444658815,0.300282210111618,0.3607589304447174,37.11534881591797,0.3201369899325073,32.221656799316406,L,False,True,0,L,50,,0.356,LeftResponse,correct,True,8.0
11,14,243.33266666666668,6573,243.32,243.326,243.332,0.4030140213279953,39.37514397998368,-0.2998131215572357,-30.119922637939453,-0.1321156620979309,-11.040460586547852,-0.2693183869123459,-25.361234664916992,-0.1321186870336532,-10.532519340515137,L,False,True,0,R,0,,0.236,RightResponse,correct,True,14.0
12,15,247.09266666666667,714,246.68,246.684,246.689,0.2600621138467198,26.685929517461798,0.2515323758125305,26.6084098815918,0.3506273925304413,38.41193008422852,-0.0660588145256042,-2.03257417678833,-0.1041717305779457,-13.396809577941896,L,False,True,0,R,400,,0.307,LeftResponse,incorrect,True,8.0
13,17,258.44666666666666,3968,258.325,258.334,258.343,1.3679278587681691,119.0569364065553,-0.3911272883415222,-40.54477691650391,0.0889265239238739,15.844979286193848,1.3108188551850617,111.94049835205078,0.8714702129364014,64.02692413330078,L,False,True,0,L,100,,0.236,LeftResponse,correct,True,13.0
14,18,262.57166666666666,6593,262.551,262.556,262.558,0.1902639452797911,21.95734621068477,-0.1575218439102172,-17.06874656677246,-0.1143349707126617,-12.934853553771973,-0.1067110002040863,-13.812419891357422,-0.0355705171823501,-6.883121967315674,L,False,True,0,L,0,,0.246,LeftResponse,correct,True,13.0
15,19,266.8396666666667,6598,266.627,266.634,266.638,0.3590497285832483,39.03129793191946,-0.3328417390584945,-35.20139694213867,-0.0533554702997207,-11.548710823059082,-0.1346591413021087,-16.861312866210938,-0.1549833714962005,-13.07310676574707,L,False,True,0,R,200,,0.256,LeftResponse,incorrect,True,11.0
16,20,272.1936666666667,6603,272.132,272.14,272.147,0.7228676842555259,68.79221662219554,-0.7215760946273804,-68.78569793701172,-0.4064878821372986,-38.22458267211914,0.0431929230690002,0.9470095634460448,0.0152432322502136,1.9169315099716189,L,False,True,0,R,50,,0.309,RightResponse,correct,True,7.0
17,21,280.4116666666667,6616,280.349,280.355,280.361,0.3833556647025521,40.18079770249084,-0.3734955489635467,-39.35912322998047,-0.2693234756588936,-33.58454895019531,0.0863865762948989,8.084300994873047,0.0584382549859583,0.9470229744911194,L,False,True,0,L,50,,0.352,LeftResponse,correct,True,6.0
18,22,286.0656666666667,770,285.852,285.858,285.865,0.4319647219556299,41.8846394027156,0.4192155003547668,41.62135314941406,0.6478956043720245,58.87680435180664,0.1041723825037479,-4.688920974731445,0.0177855566143989,0.900827169418335,L,False,True,0,L,200,,0.29,LeftResponse,correct,True,14.0
19,23,289.2096666666667,774,289.147,289.156,289.163,1.0206160546333156,98.86210927827749,1.0162772238254547,98.8563995361328,0.7266450226306915,66.61255645751953,0.0940092299133539,-1.0625072717666626,0.0736829997040331,-2.032632350921631,L,False,True,0,L,50,,0.354,LeftResponse,correct,True,5.0
20,24,293.26866666666666,779,293.204,293.211,293.218,0.3184203324669065,33.591127806171706,0.3175981864333153,33.3997917175293,0.3353836610913276,29.311473846435547,0.0228670090436935,3.580192804336548,-0.0482743978500366,-3.441584825515747,L,False,True,0,R,50,,0.299,LeftResponse,incorrect,True,4.0
21,25,296.5156666666667,6630,296.506,296.513,296.518,0.4627540539117665,39.958983421534256,-0.4624121524393558,-39.95897674560547,-0.3988974541425705,-40.189971923828125,0.0177852660417556,0.0230981949716806,0.0940029621124267,5.473886013031006,L,False,True,0,L,0,,0.211,LeftResponse,correct,True,12.0
22,26,300.64166666666665,6635,300.529,300.535,300.541,0.4689906141657712,50.04300926358239,-0.4370141178369522,-45.47999954223633,-0.3048699498176574,-29.309030532836918,-0.1702082753181457,-20.8775577545166,-0.2693230845034122,-26.95540428161621,L,False,True,0,R,100,,0.215,LeftResponse,incorrect,True,12.0
23,27,305.21366666666665,804,305.202,305.209,305.216,0.6301674747331232,68.46227765579856,0.6300394237041473,67.80741119384766,0.7012427002191544,68.36920166015625,-0.0127031803131103,-9.446610450744627,0.0076223816722631,-4.296249866485596,L,False,True,0,R,0,,0.207,LeftResponse,incorrect,True,11.0
24,28,309.23066666666665,6650,308.818,308.823,308.828,0.3157531677326781,36.30785317810928,-0.2998047769069671,-33.60677719116211,-0.144817441701889,-18.685382843017575,-0.0990815758705139,-13.74207878112793,-0.127039685845375,-12.542283058166504,L,False,True,0,L,400,,0.341,LeftResponse,correct,True,11.0
25,30,320.8256666666667,824,320.813,320.82,320.828,0.7985647109145564,78.92614573996985,0.7595836222171783,77.1141128540039,0.6097850501537323,58.5765495300293,0.2464514523744583,16.815174102783203,0.1143347695469856,13.165779113769531,L,False,True,0,L,0,,0.386,RightResponse,incorrect,True,14.0
26,31,324.8016666666667,6670,324.589,324.595,324.6,0.4162069792630178,49.50855811892528,-0.3938212096691131,-46.68107223510742,-0.2108695805072784,-25.8447265625,-0.1346592158079147,-16.49165916442871,-0.1524439752101898,-11.45637321472168,L,False,True,0,R,200,,0.28,LeftResponse,incorrect,True,13.0
27,33,337.25866666666667,6685,336.843,336.847,336.851,0.2723725151740522,29.71979571252428,-0.2185077890753746,-24.34537124633789,-0.1549718976020813,-18.707502365112305,0.1626072973012924,17.04608917236328,0.2515288144350052,27.46265983581543,L,False,True,0,R,400,,0.394,LeftResponse,incorrect,True,10.0
28,34,342.50466666666665,854,342.443,342.447,342.452,0.2353064761899545,25.33131125330737,0.1854690611362457,22.450342178344727,0.2515042424201965,31.01671028137207,0.1448114812374115,11.732751846313477,0.12195760384202,10.394128799438477,L,False,True,0,R,50,,0.373,LeftResponse,incorrect,True,7.0
29,35,347.4096666666667,4052,347.35,347.352,347.364,0.3116774313221715,26.432750739087645,-0.152446337044239,-19.86421203613281,-0.0457320511341095,-13.881187438964844,0.2718509435653686,17.438560485839844,0.2413620054721832,15.2898530960083,L,False,True,0,R,50,,0.234,LeftResponse,incorrect,True,10.0
30,36,352.45166666666665,6708,352.039,352.045,352.051,0.425159445921623,44.78685703167487,-0.4065254628658294,-40.952857971191406,-0.3455225229263305,-36.74623489379883,-0.1244893670082092,-18.130802154541016,-0.0914678946137428,-14.505529403686523,L,False,True,0,L,400,,0.362,LeftResponse,correct,True,13.0
31,37,356.5396666666667,6717,356.329,356.336,356.34,0.3740009050658041,36.81759669885828,-0.2998120412230491,-30.21225357055664,-0.1117841601371765,-13.926844596862791,-0.2235831320285797,-21.041748046875,-0.2083426043391227,-20.76494789123535,L,False,True,0,L,200,,0.293,LeftResponse,correct,True,16.0
32,38,360.1116666666667,9521,359.905,359.909,359.916,0.4319587574451172,46.77495669094564,-0.1041712164878845,-23.698545455932617,-0.0101629495620727,-4.989063262939453,-0.4192096441984176,-40.32710647583008,-0.3531673178076744,-33.69999313354492,L,False,True,0,L,200,,0.233,LeftResponse,correct,True,15.0
33,39,363.7296666666667,6728,363.616,363.621,363.627,0.3524420397857232,34.99808916166088,-0.3277582693845033,-32.752723693847656,-0.160066470503807,-17.06912612915039,-0.1295758783817291,-12.33390998840332,-0.0533535182476043,-1.662971258163452,L,False,True,0,L,100,,0.258,LeftResponse,correct,True,14.0
34,40,435.1276666666667,7011,434.912,434.919,434.925,0.4548053881898132,41.59337476377211,-0.4522366523742676,-40.85866928100586,-0.3048943653702736,-37.25714492797852,0.0482695698738098,7.783185005187988,0.022866815328598,-1.6630395650863647,L,False,True,1,L,200,,0.316,LeftResponse,correct,True,14.0
35,41,439.0996666666667,7022,438.687,438.693,438.697,0.3101860855790304,33.36696417450937,-0.2921738624572754,-31.50388526916504,-0.1600676923990249,-16.029821395874023,-0.104162573814392,-10.993612289428713,-0.2159543931484222,-26.86138916015625,L,False,True,1,L,400,,0.382,LeftResponse,correct,True,12.0
36,43,450.2076666666667,7030,449.797,449.804,449.809,0.7696755853571484,80.0161869601636,-0.6504291445016861,-67.42240905761719,-0.4598807394504547,-47.37409591674805,-0.4115123748779297,-43.09070587158203,-0.2261275127530098,-26.35463523864746,L,False,True,1,L,400,,0.24,LeftResponse,correct,True,11.0
37,44,455.69866666666667,7035,455.288,455.294,455.3,0.5289446056419325,47.69742412837861,-0.5284501314163208,-47.69471740722656,-0.3811161816120147,-32.221622467041016,0.0228660106658935,-0.5081337690353394,0.0025407671928405,-3.441596031188965,L,False,True,1,R,400,,0.281,LeftResponse,incorrect,True,10.0
38,45,459.4166666666667,7042,459.003,459.011,459.016,0.7048384444373395,71.89667992076632,-0.5945402234792709,-60.978702545166016,-0.2566197216510772,-30.720361709594727,-0.3785751648247242,-38.08845520019531,-0.2464508265256881,-20.04867935180664,L,False,True,1,R,400,,0.292,LeftResponse,incorrect,True,13.0
39,46,463.40566666666666,1280,463.344,463.347,463.351,0.1972131024439961,24.76565848095356,0.1549880160018801,20.903757095336918,0.1778552113100886,21.59670639038086,-0.1219496726989746,-13.280466079711914,-0.1575217545032501,-20.97207260131836,L,False,True,1,L,50,,0.342,LeftResponse,correct,True,13.0
40,47,467.8896666666667,1285,467.875,467.88,467.888,0.3370753941775788,27.026851809659057,0.3277442157268524,26.977052688598636,0.3684132322669029,34.73946762084961,-0.0787626206874847,-1.639922857284546,-0.1676831841468811,-10.947957992553713,L,False,True,1,L,0,,0.371,LeftResponse,correct,True,17.0
41,48,475.19166666666666,4374,475.07,475.081,475.085,0.7371191425722727,66.36518117510835,0.2108763754367828,34.5984001159668,0.2159628570079803,30.650291442871094,0.7063113935291767,56.6329231262207,0.6453336835838854,51.48278427124024,L,False,True,1,L,100,,0.385,RightResponse,incorrect,True,13.0
42,49,478.70166666666665,7064,478.581,478.584,478.586,0.1314569403898832,19.405680840375855,-0.0990906842052936,-13.95122241973877,-0.0508150607347488,-6.582859039306641,-0.086382657289505,-13.488656044006348,-0.0965394377708435,-13.072026252746582,L,False,True,1,R,100,,0.297,RightResponse,correct,True,16.0
43,50,482.41966666666667,1312,482.355,482.36,482.364,0.309985104591638,31.72962083927513,0.2871085293591022,30.119848251342773,0.3125123009085655,32.7987174987793,-0.1168736815452575,-9.978155136108398,-0.0787610411643982,-5.035159587860107,L,False,True,1,R,50,,0.201,LeftResponse,incorrect,True,12.0
44,51,486.59066666666666,7078,486.379,486.384,486.389,0.3353159593844174,37.776035193063606,-0.3328425958752632,-37.76529312133789,-0.2896452993154526,-32.521541595458984,-0.0406521707773208,-0.9008165001869202,-0.0406512320041656,-7.206365585327148,L,False,True,1,L,200,,0.292,RightResponse,incorrect,True,13.0
45,52,490.27566666666667,7082,490.065,490.071,490.076,0.4165708566273737,43.19825502471658,-0.4039837941527366,-42.29240798950195,-0.3023526631295681,-37.557254791259766,-0.1016286015510559,-8.80008316040039,-0.1422805041074752,-19.147857666015625,L,False,True,1,R,200,,0.334,LeftResponse,incorrect,True,16.0
46,53,495.3006666666667,7085,495.239,495.246,495.252,0.5301465915251805,54.04206358883698,-0.510696142911911,-51.02349853515625,-0.342994287610054,-37.07115936279297,0.1422844268381595,17.80862808227539,0.1524308919906616,10.831961631774902,L,False,True,1,L,50,,0.224,LeftResponse,correct,True,15.0
47,54,502.5996666666667,9838,502.377,502.388,502.389,0.2373926154880001,22.385340150280133,-0.0228669792413711,17.669965744018555,0.0381117984652519,11.341144561767578,-0.2362887114286422,-13.743207931518556,-0.1422826498746872,-0.8546164631843567,L,False,True,1,L,200,,0.261,LeftResponse,correct,True,19.0
48,55,506.95866666666666,1332,506.946,506.951,506.957,0.3151324706120201,34.6622766968255,0.3150402903556824,34.6452751159668,0.388740062713623,36.494964599609375,0.0076216459274291,-1.0855127573013306,-0.0050809383392333,5.265644550323486,L,False,True,1,L,0,,0.364,LeftResponse,correct,True,16.0
49,56,510.30966666666666,7098,510.25,510.256,510.261,0.3852008313204398,38.79494911528104,-0.3430001437664032,-32.29060363769531,-0.1397431828081607,-19.748817443847656,-0.1753014028072357,-21.502674102783203,-0.2362758517265319,-20.90223693847656,L,False,True,1,R,50,,0.303,RightResponse,correct,True,14.0
50,57,513.4826666666667,1342,513.421,513.427,513.435,0.4277250028325287,39.960631382889545,0.3912773542106151,33.76920700073242,0.3277613595128059,29.981281280517575,0.172773580532521,21.36569023132324,0.2058034003712237,22.405075073242188,L,False,True,1,L,50,,0.281,LeftResponse,correct,True,13.0
51,58,516.5096666666667,7104,516.399,516.405,516.411,0.7267121591030746,66.91019376395944,-0.4878291338682174,-51.92433166503906,-0.1981817483901977,-26.978578567504883,0.5386402308940887,42.199974060058594,0.2439127117395401,20.16436195373535,L,False,True,1,L,100,,0.219,LeftResponse,correct,True,15.0
52,59,520.3936666666667,7110,520.331,520.338,520.345,0.5686444420380531,52.817551410751854,-0.5665917545557022,-52.61717987060547,-0.2464566752314567,-25.75438690185547,0.0482730269432067,4.596315860748291,-0.0482724606990814,-5.335343837738037,L,False,True,1,L,50,,0.26,LeftResponse,correct,True,12.0
53,60,525.0696666666666,7116,524.958,524.964,524.97,0.4858240473114042,50.21353234091849,-0.4802045226097107,-49.24469375610352,-0.3861993253231048,-38.98955154418945,0.0736791789531707,9.81626033782959,-0.0076220035552978,-3.903385162353516,L,False,True,1,R,100,,0.396,RightResponse,correct,True,14.0
54,63,536.1726666666667,7133,535.963,535.967,535.971,0.2649474697500507,32.673277412451625,-0.241372525691986,-29.14951515197754,-0.1575290858745575,-18.70946502685547,0.1092541329562664,14.759702682495115,0.1803812980651855,18.08429336547852,L,False,True,1,R,200,,0.26,LeftResponse,incorrect,True,18.0
55,64,539.6866666666667,9875,539.624,539.629,539.635,0.4439140861459167,52.65144889812675,-0.1219580806791782,-15.983901023864746,-0.0025407946668565,2.3098106384277344,-0.42683245241642,-50.166622161865234,-0.3302897065877914,-33.60639572143555,L,False,True,1,R,50,,0.25,LeftResponse,incorrect,True,11.0
56,65,543.5086666666667,9883,543.5,543.504,543.512,0.440318200511905,46.199413160335375,-0.1753111630678177,-27.763580322265625,-0.132121036760509,-24.322174072265625,-0.4039134979248047,-36.92654037475586,-0.3861987739801407,-39.659366607666016,L,False,True,1,L,0,,0.36,LeftResponse,correct,True,17.0
57,66,547.5226666666666,7148,547.309,547.314,547.319,0.3388400705138319,32.93354344105179,-0.3353837579488754,-32.59138488769531,-0.1194171905517578,-12.865647315979004,0.0482734739780426,4.734967231750488,-0.005080759525299,-1.0161497592926023,L,False,True,1,R,200,,0.326,RightResponse,correct,True,21.0
58,67,550.9116666666666,7149,550.699,550.707,550.713,0.5974908503725925,62.658683168806846,-0.5843761414289474,-60.26261520385742,-0.3734955042600631,-35.89435195922852,0.1244983598589897,17.16181182861328,0.1549820303916931,17.946491241455078,L,False,True,1,L,200,,0.247,LeftResponse,correct,True,20.0
59,68,555.5206666666667,7156,555.506,555.511,555.515,0.235417730514758,26.536283399540352,-0.2337528094649315,-26.031572341918945,-0.1422837786376476,-15.914542198181152,-0.0279487371444702,-5.150881290435791,-0.0152432322502136,-1.1316945552825928,L,False,True,1,R,0,,0.352,RightResponse,correct,True,16.0
60,69,559.9706666666667,1391,559.861,559.87,559.876,1.0134536881967735,98.71696682154816,0.8841053247451782,85.54496765136719,0.6936203688383102,67.30631256103516,0.4954252243041992,49.265586853027344,0.4852598905563354,38.386905670166016,L,False,True,1,L,100,,0.287,LeftResponse,correct,True,13.0
61,70,563.3726666666666,1399,562.962,562.971,562.977,0.8367123360773839,73.39457021484961,0.769844114780426,70.51712799072266,0.6529335230588913,62.45166397094727,0.3277614563703537,20.349388122558597,0.3832961320877075,23.42154884338379,L,False,True,1,R,400,,0.228,LeftResponse,incorrect,True,16.0
62,72,578.9016666666666,7185,578.84,578.847,578.853,0.5370356224319484,57.39273422650987,-0.5335628837347031,-57.37543869018555,-0.3633312433958053,-43.054725646972656,0.0609746575355529,1.4088921546936035,0.2718626111745834,21.08831596374512,L,False,True,1,R,50,,0.301,RightResponse,correct,True,14.0
63,73,582.9236666666667,1415,582.811,582.817,582.822,0.3287438403056122,35.242381236530136,0.3277605958282947,35.178260803222656,0.3303024172782898,31.621288299560547,-0.0254067778587341,-2.1249475479125977,-0.0711413323879242,-5.959222316741943,L,False,True,1,R,100,,0.265,RightResponse,correct,True,12.0
64,75,591.3546666666667,1434,590.94,590.949,590.955,0.663670909269085,58.41739653973414,0.6427944579627365,58.06596374511719,0.6072338595986366,64.92729187011719,0.1651495099067688,6.398130416870117,0.0355702936649322,4.550213813781738,L,False,True,1,L,400,,0.237,LeftResponse,correct,True,19.0
65,76,594.5516666666666,7214,594.439,594.444,594.449,0.4085580569660998,46.65968574275092,-0.3963603973388672,-46.10345077514648,-0.2261287122964859,-22.33572769165039,-0.0990864336490631,-7.1831817626953125,0.0152437388896942,-0.9469494819641112,L,False,True,1,L,100,,0.324,LeftResponse,correct,True,11.0
66,77,598.1866666666667,1445,597.773,597.779,597.785,0.3500379390974846,33.321975498896165,0.3404648378491401,32.68376159667969,0.185476753860712,17.76236343383789,0.0813034623861312,6.4904375076293945,-0.0025407075881958,-0.8776953220367432,L,False,True,1,R,400,,0.22,RightResponse,correct,True,18.0
67,78,605.3686666666666,7222,605.154,605.162,605.168,0.4723834136026259,43.791802841713306,-0.4624144753906876,-43.30828857421875,-0.2871018350124359,-25.24552154541016,0.0965346693992614,6.489540576934815,0.0863797962665557,12.217738151550291,L,False,True,1,R,200,,0.27,RightResponse,correct,True,19.0
68,79,609.1866666666667,7230,608.776,608.782,608.788,0.4633390809255526,48.49607491948597,-0.4319297336041927,-46.79632568359375,-0.3226769417524338,-37.62626647949219,0.1676896214485168,12.726868629455566,0.0838415920734405,6.99830961227417,L,False,True,1,L,400,,0.229,LeftResponse,correct,True,17.0
69,80,658.7596666666667,1674,658.645,658.654,658.66,1.2028188514433924,125.22137057195052,1.1254929155111313,117.4253158569336,1.115363746881485,113.24601745605467,0.4243098944425583,43.49352645874024,0.6783771514892578,67.69977569580078,L,False,True,2,L,100,,0.21,LeftResponse,correct,True,10.0
70,82,670.9126666666667,7445,670.501,670.507,670.511,0.3829164231874755,41.78965014474869,-0.2972716018557548,-32.637508392333984,-0.3328393641859293,-32.98384475708008,-0.2413598597049713,-26.099193572998047,-0.3327523469924927,-32.16705703735352,L,False,True,2,L,400,,0.36,LeftResponse,correct,True,16.0
71,83,674.6596666666667,7451,674.448,674.455,674.462,0.6760130669156557,72.3554448112029,-0.6758411526679993,-72.25006866455078,-0.500529333949089,-56.10476303100586,0.0152447696309536,3.903584480285645,0.0660584568977356,12.51874828338623,L,False,True,2,R,200,,0.393,RightResponse,correct,True,18.0
72,84,677.6156666666667,10112,677.605,677.61,677.618,0.426343623578071,38.890645339364006,-0.2566170506179333,-26.63177299499512,-0.0914649665355682,-9.423707008361816,-0.3404652327299118,-28.34132957458496,-0.2820046842098236,-25.290206909179688,L,False,True,2,R,0,,0.344,LeftResponse,incorrect,True,14.0
73,85,681.2416666666667,7462,681.181,681.188,681.194,0.4887804093450267,48.16862581504876,-0.4878287017345428,-48.15931701660156,-0.2768973112106323,-37.91983413696289,0.0304868221282959,0.946941077709198,0.0990895181894302,-0.1616841554641723,L,False,True,2,R,50,,0.219,RightResponse,correct,True,13.0
74,86,688.7066666666667,1702,688.697,688.704,688.71,0.6708291356508892,74.24336382195754,0.6630861014127731,72.75212097167969,0.6249443590641022,60.60056686401367,0.1016294807195663,14.8056058883667,0.1854776218533516,22.266578674316406,L,False,True,2,R,0,,0.311,RightResponse,correct,True,17.0
75,87,694.3816666666667,7470,694.27,694.277,694.283,0.6224425252476162,60.9651979177421,-0.6199276298284531,-60.8613395690918,-0.4217698872089386,-44.27898025512695,0.0558966100215911,3.5570638179779053,0.0609786510467529,-0.3695665895938873,L,False,True,2,L,100,,0.227,LeftResponse,correct,True,9.0
76,88,697.2916666666666,1711,697.229,697.236,697.244,0.7763277910551755,73.23418321323712,0.561504565179348,46.54217529296875,0.4700379781424999,43.51628875732422,0.5360946394503117,56.54265213012695,0.4420703947544098,40.46500396728516,L,False,True,2,R,50,,0.237,RightResponse,correct,True,12.0
77,89,700.8056666666666,1715,700.395,700.401,700.406,0.4550702626240767,50.4593246089497,0.416683810763061,48.02024841308594,0.4090569615364074,44.8553466796875,-0.182930439710617,-15.498360633850098,-0.1829276084899902,-14.181523323059082,L,False,True,2,R,400,,0.302,RightResponse,correct,True,15.0
78,90,705.5726666666667,7476,705.362,705.368,705.375,0.643218561161511,64.26448815654824,-0.6428119987249374,-64.0965805053711,-0.2972718998789787,-42.24632263183594,-0.0228659510612487,-4.642499923706055,0.0787641257047653,5.497326374053955,L,False,True,2,R,200,,0.297,RightResponse,correct,True,17.0
79,91,712.3796666666667,7479,712.317,712.325,712.331,0.8388597771944134,78.77331688141612,-0.7927150428295135,-76.1306381225586,-0.6987033486366272,-72.01834106445312,0.2743876576423645,20.232681274414062,0.1270387098193168,13.142751693725586,L,False,True,2,R,50,,0.221,RightResponse,correct,True,11.0
80,93,724.6616666666666,7496,724.247,724.253,724.259,0.3162122843930053,30.55136073743245,-0.3048934563994407,-29.31138038635254,-0.1244963854551315,-15.544776916503906,-0.0838462226092815,-8.61560344696045,-0.0508118271827697,-7.298484325408935,L,False,True,2,L,400,,0.202,LeftResponse,correct,True,14.0
81,94,727.5966666666667,1741,727.384,727.391,727.397,0.6453410945832729,67.73468771520866,0.6453410945832729,67.53681182861328,0.5665384829044342,55.1752815246582,0.0,-5.173680305480957,0.017784297466278,-0.4157335460186004,L,False,True,2,L,200,,0.252,LeftResponse,correct,True,16.0
82,99,757.0276666666666,1798,756.918,756.926,756.934,0.8483882098550656,84.55264967939847,0.8460070490837097,84.39278411865234,0.8561922833323479,82.13216400146484,-0.0635187178850174,5.1969757080078125,0.035568356513977,5.011963367462158,L,False,True,2,R,100,,0.331,RightResponse,correct,True,11.0
83,100,760.9706666666667,7563,760.557,760.564,760.569,0.3898637102413154,43.91470100457708,-0.3658711463212967,-40.213417053222656,-0.3201386854052543,-34.716304779052734,-0.1346551775932312,-17.646020889282227,-0.0889187455177307,-14.989215850830078,L,False,True,2,R,400,,0.371,LeftResponse,incorrect,True,13.0
84,101,767.4946666666667,7569,767.431,767.435,767.44,0.2846122360375014,35.2601148289635,-0.2845668732188642,-35.178199768066406,-0.1194141954183578,-15.2212553024292,-0.005081295967102,2.402073860168457,-0.0584369152784347,-7.137157440185547,L,False,True,2,R,50,,0.399,RightResponse,correct,True,10.0
85,102,770.4376666666667,7570,770.379,770.386,770.393,0.7660628837265987,73.59279680053969,-0.6936142295598984,-64.02616882324219,-0.3328403255436569,-36.42535781860352,0.325194776058197,36.28428649902344,0.2108796238899231,23.72122383117676,L,False,True,2,L,50,,0.212,RightResponse,incorrect,True,9.0
86,103,778.2116666666667,1822,778.198,778.205,778.211,0.6265935493110978,67.61510117270105,0.584368884563446,64.88116455078125,0.6326472610235214,60.72394180297852,0.2261249274015426,19.032508850097656,0.106712706387043,8.292154312133789,L,False,True,2,L,0,,0.229,RightResponse,incorrect,True,16.0
87,104,781.8496666666666,7587,781.739,781.745,781.75,0.5442800763459558,59.3137711553328,-0.5360999628901482,-58.29889297485352,-0.4014439582824707,-47.76677703857422,-0.0940086767077446,-10.925315856933594,-0.1092415452003479,-13.141358375549316,L,False,True,2,R,100,,0.371,LeftResponse,incorrect,True,10.0
88,105,784.9146666666667,4776,784.895,784.903,784.909,0.7186776386753068,75.53585904862912,0.1575273424386978,19.97978401184082,0.2286707907915115,27.440467834472656,0.7012008875608444,72.84555053710938,0.6681660264730453,60.71995162963867,L,False,True,2,R,0,,0.233,RightResponse,correct,True,19.0
89,108,798.7326666666667,7609,798.521,798.528,798.534,0.6821367951102498,71.73542960866492,-0.6809243857860565,-71.69596862792969,-0.5386372730135918,-60.35404968261719,-0.0406520366668701,-2.379063606262207,-0.0965422689914703,-9.400213241577148,L,False,True,2,L,200,,0.304,LeftResponse,correct,True,15.0
90,109,801.9716666666667,7613,801.76,801.766,801.772,0.4294216154557923,41.795008728035405,-0.429391548037529,-41.50716018676758,-0.1168764578178525,-18.29369354248047,0.0050815641880035,4.896775245666504,-0.0940065681934356,-6.836832523345947,L,False,True,2,R,200,,0.306,RightResponse,correct,True,14.0
91,110,806.3136666666667,7618,805.9,805.908,805.913,0.6047380283849897,66.85787883910528,-0.6021491941064596,-66.82032775878906,-0.3582457676529884,-41.15985870361328,0.0558966100215911,2.2404823303222656,0.0127039719372987,-1.0163151025772097,L,False,True,2,L,400,,0.278,LeftResponse,correct,True,16.0
92,112,817.2766666666666,7624,817.066,817.074,817.081,0.9427942290184812,83.14055688314036,-0.9425168707966805,-83.0739974975586,-0.7088572233915329,-71.18619537353516,-0.0228671496734023,3.326129674911499,-0.0940068066120147,-1.3165572881698608,L,False,True,2,R,200,,0.345,LeftResponse,incorrect,True,13.0
93,113,824.5456666666666,1879,824.333,824.338,824.343,0.3436979312651944,33.704553065476546,0.2566178441047668,27.16313362121582,0.3506253361701965,34.99334716796875,0.228638470172882,19.9539737701416,0.3099673092365265,28.571741104125977,L,False,True,2,L,200,,0.333,RightResponse,incorrect,True,16.0
94,114,828.0096666666667,7642,827.996,828.004,828.009,0.6072575117524245,58.33625718343992,-0.5665872693061829,-54.67233657836914,-0.3175923600792885,-30.74274253845215,-0.2184961140155792,-20.348329544067383,-0.2464094161987304,-20.137540817260746,L,False,True,2,L,0,,0.355,LeftResponse,correct,True,24.0
95,115,831.9936666666666,7648,831.782,831.79,831.796,0.8880561418211165,81.45540218359058,-0.8739736340939999,-81.0914535522461,-0.6782756745815277,-71.1767349243164,-0.1575239598751068,-7.691469669342041,-0.0381074547767639,-11.316777229309082,L,False,True,2,L,200,,0.235,LeftResponse,correct,True,19.0
96,116,835.3536666666666,7657,834.941,834.946,834.95,0.3180884322337252,36.6528832869469,-0.2718628407455981,-31.43630599975586,-0.2159645780920982,-22.93606948852539,-0.1651388704776764,-18.8465518951416,-0.2515275180339813,-26.28454971313477,L,False,True,2,R,400,,0.312,LeftResponse,incorrect,True,15.0
97,117,838.3556666666667,7663,838.341,838.349,838.354,0.5355660403871042,48.94298040186037,-0.4420947432518005,-38.52755737304688,-0.1778524816036224,-24.968603134155277,-0.3022965788841247,-30.183483123779297,-0.3887090981006622,-35.42973327636719,L,False,True,2,L,0,,0.304,LeftResponse,correct,True,23.0
98,118,842.9226666666667,1911,842.809,842.814,842.819,0.2767653853323546,31.40478280974286,0.2667801640927791,29.957887649536133,0.3328430205583572,34.36994934082031,0.0736710429191589,9.422597885131836,0.119409441947937,14.389240264892578,L,False,True,2,L,100,,0.363,LeftResponse,correct,True,13.0
99,119,845.7036666666667,7667,845.641,845.649,845.654,0.6394161345539114,63.45911694967173,-0.5564244315028191,-52.61660003662109,-0.2820208966732025,-30.53485679626465,0.315031498670578,35.47608947753906,0.2947093248367309,22.14927864074707,L,False,True,2,L,50,,0.219,LeftResponse,correct,True,12.0
100,120,1010.0536666666667,7838,1009.99,1009.996,1010.0,0.4366561861158221,47.72345995488139,-0.3150425404310226,-36.88581466674805,-0.2159671671688556,-19.44856834411621,-0.3023521499708295,-30.281435012817383,-0.1803843677043914,-18.96226692199707,L,False,True,3,L,50,,0.363,LeftResponse,correct,True,11.0
101,121,1014.8616666666667,7841,1014.449,1014.455,1014.46,0.3491440080973131,37.88733045515155,-0.3252116590738296,-36.03206634521485,-0.350627988576889,-39.56686019897461,-0.1270390301942825,-11.710679054260254,-0.1422736048698425,-13.0263090133667,L,False,True,3,R,400,,0.336,RightResponse,correct,True,18.0
102,122,1020.2456666666667,7849,1020.132,1020.14,1020.147,0.546193193489629,46.5677356856547,-0.5259381085634232,-44.94866561889648,-0.3429871499538421,-39.03380584716797,-0.1473638713359832,-12.17257022857666,-0.1651394069194793,-16.606294631958008,L,False,True,3,R,100,,0.343,RightResponse,correct,True,12.0
103,124,1032.3696666666665,7863,1032.254,1032.259,1032.264,0.3365380120958341,35.06176714015041,-0.2515382841229439,-26.216354370117188,-0.1168765015900135,-16.37656593322754,-0.2235762178897857,-23.281543731689453,-0.1651208400726318,-20.091646194458008,L,False,True,3,L,100,,0.327,LeftResponse,correct,True,11.0
104,125,1036.0786666666665,2205,1036.014,1036.02,1036.025,0.305298493103449,34.28877168442894,0.2896327376365661,33.513092041015625,0.3760341480374336,43.97842788696289,-0.0965403914451599,-7.252070426940918,-0.1168658733367919,-8.1759672164917,L,False,True,3,L,50,,0.386,LeftResponse,correct,True,10.0
105,126,1039.1926666666666,7877,1039.081,1039.088,1039.093,0.4172297012395134,41.69216280435194,-0.4065015316009521,-40.16545104980469,-0.2362851798534393,-25.89211082458496,-0.0940060019493103,-11.179131507873535,-0.1016169190406799,-8.960832595825195,L,False,True,3,L,100,,0.282,LeftResponse,correct,True,10.0
106,127,1042.4066666666665,7878,1041.993,1041.999,1042.004,0.4197185518662693,45.0124424044624,-0.3836487233638763,-40.605350494384766,-0.1651509776711464,-23.65239524841309,0.1702272593975067,19.424867630004883,0.1321171522140503,13.69676685333252,L,False,True,3,R,400,,0.334,RightResponse,correct,True,17.0
107,128,1045.4046666666666,7880,1045.391,1045.401,1045.408,0.7004780264462703,64.7587967218143,-0.691085085272789,-64.74346923828125,-0.5284799337387085,-61.02482223510742,-0.1143279075622558,-1.408880352973938,0.0050813853740692,-1.0855698585510254,L,False,True,3,R,0,,0.201,RightResponse,correct,True,22.0
108,129,1052.9526666666666,7887,1052.879,1052.886,1052.889,0.2404135525234798,23.909780889539785,-0.195630133152008,-18.362075805664062,-0.1372024528682232,-10.809906005859377,0.1397409290075302,15.313777923583984,0.0762204825878143,3.787952899932861,L,False,True,3,R,50,,0.337,RightResponse,correct,True,9.0
109,130,1059.0356666666667,2231,1058.824,1058.829,1058.835,0.2965739776136135,32.32805281368322,0.2667689621448517,29.58714485168457,0.2794863618910312,28.61847305297852,0.129577949643135,13.027043342590332,0.1067120730876922,9.747255325317385,L,False,True,3,L,200,,0.364,LeftResponse,correct,True,18.0
110,131,1065.1346666666666,7903,1065.023,1065.027,1065.032,0.2135624253350075,22.49439357074485,-0.2134263627231121,-22.47445106506348,-0.1499062664806842,-16.376516342163086,0.0076221525669097,-0.946990728378296,0.0127034485340118,-1.5936977863311768,L,False,True,3,L,100,,0.283,LeftResponse,correct,True,9.0
111,132,1068.0576666666666,7907,1068.045,1068.051,1068.056,0.5302856485796401,54.3869600097882,-0.5030738711357117,-53.56427764892578,-0.3582489937543869,-39.45135116577149,-0.1676888465881347,-9.423883438110352,-0.1270152330398559,-8.359992980957031,L,False,True,3,R,0,,0.229,RightResponse,correct,True,21.0
112,133,1073.8946666666666,2245,1073.686,1073.691,1073.698,0.3892697322646621,40.11374698849247,0.3887386843562126,39.68238830566406,0.558969035744667,53.63339614868164,0.0203263312578201,5.866920471191406,-0.0076218545436859,7.41407585144043,L,False,True,3,R,200,,0.307,RightResponse,correct,True,17.0
113,134,1076.7926666666665,2250,1076.582,1076.589,1076.596,0.4893590386374876,47.96376667848694,0.4725817441940307,44.902305603027344,0.5310137830674648,54.094764709472656,0.1270384341478347,16.861371994018555,0.1600571870803833,9.631046295166016,L,False,True,3,L,200,,0.203,LeftResponse,correct,True,16.0
114,136,1087.1546666666666,7920,1086.738,1086.745,1086.751,0.3768935368469792,34.72246293869825,-0.376036137342453,-34.6470832824707,-0.3353671133518219,-34.46064758300781,0.0254079028964042,2.286712169647217,-0.0812973380088806,-10.53168773651123,L,False,True,3,R,400,,0.315,RightResponse,correct,True,16.0
115,137,1094.5536666666665,7922,1094.139,1094.146,1094.153,0.5962515148217029,56.53480563018775,-0.5183178335428238,-51.046630859375,-0.3557005822658539,-31.597387313842773,0.2947244346141815,24.298677444458008,0.1879975199699401,5.150240421295166,L,False,True,3,L,400,,0.35,LeftResponse,correct,True,15.0
116,138,1097.7796666666666,2273,1097.667,1097.671,1097.676,0.2714245065593224,29.9085786796828,0.2134259818121791,23.44453239440918,0.2642421275377273,32.03704833984375,-0.1676920184399932,-18.570863723754883,-0.1168545484542846,-13.533019065856934,L,False,True,3,L,100,,0.366,LeftResponse,correct,True,8.0
117,139,1101.3106666666665,7932,1100.898,1100.905,1100.912,0.5180418955537055,52.82164044772128,-0.4827177822589874,-47.6485595703125,-0.2388297766447067,-19.4713077545166,-0.1880184784531593,-22.79781723022461,-0.190531849861145,-20.693071365356445,L,False,True,3,L,400,,0.236,LeftResponse,correct,True,14.0
118,140,1106.8066666666666,5096,1106.792,1106.797,1106.805,0.4060947711220244,41.74746084306418,0.0990878343582153,21.43416976928711,0.1829346120357513,27.94801139831543,0.393820472061634,35.824947357177734,0.2769148647785187,26.65238380432129,L,False,True,3,L,0,,0.374,LeftResponse,correct,True,20.0
119,141,1110.1246666666666,7936,1110.012,1110.018,1110.023,0.4582210742445177,49.12264004879142,-0.4547989219427109,-48.75982666015625,-0.2972723245620727,-33.49222183227539,-0.0558971688151359,-5.95928430557251,-0.0050809979438781,-3.64906644821167,L,False,True,3,R,100,,0.256,LeftResponse,incorrect,True,7.0
120,142,1113.3016666666665,7937,1113.089,1113.095,1113.101,0.4880634887392479,50.01493169230187,-0.4725817441940307,-47.62777328491211,-0.4573244974017143,-48.54996109008789,0.1219527125358581,15.267239570617676,0.0787594616413116,12.703160285949709,L,False,True,3,L,200,,0.378,LeftResponse,correct,True,15.0
121,143,1119.0546666666667,2286,1118.645,1118.651,1118.66,0.4764676449877865,40.976393787739546,0.4496749937534332,40.60285568237305,0.5233979523181915,48.27473449707031,0.1575240194797516,5.5202317237854,0.1244743466377258,-0.3463959097862243,L,False,True,3,R,400,,0.231,LeftResponse,incorrect,True,13.0
122,144,1125.5626666666665,2300,1125.551,1125.556,1125.562,0.6839644806916939,77.32715590024557,0.6655767560005188,75.58814239501953,0.6707517430186272,62.82600402832031,0.1575277522206306,16.30710792541504,0.2464268207550048,18.845911026000977,L,False,True,3,R,0,,0.38,RightResponse,correct,True,19.0
123,145,1129.1266666666666,7960,1128.711,1128.719,1128.725,0.5922996725497818,58.76178763551046,-0.5843774974346161,-58.25315856933594,-0.4217696934938431,-40.72177505493164,-0.0965496897697448,-7.7147393226623535,-0.0279453992843627,-11.87107276916504,L,False,True,3,L,400,,0.303,LeftResponse,correct,True,16.0
124,146,1132.2566666666667,7961,1132.243,1132.25,1132.255,0.439055714895423,43.17480700024588,-0.4319330900907516,-42.10776138305664,-0.2185076959431171,-29.195951461791992,-0.0787637382745742,-9.53941249847412,-0.0914540886878967,-12.032206535339355,L,False,True,3,R,0,,0.261,RightResponse,correct,True,18.0
125,147,1135.1836666666666,7963,1135.171,1135.177,1135.182,0.4254441734300251,44.18154081341983,-0.3709383457899093,-40.25819778442383,-0.2540779798291623,-29.84267234802246,-0.2083446383476257,-18.201265335083008,-0.1676777899265289,-17.737749099731445,L,False,True,3,L,0,,0.205,LeftResponse,correct,True,17.0
126,148,1138.7686666666666,2316,1138.756,1138.76,1138.766,0.2730412311283878,32.285339114980935,0.2718565165996551,32.26708221435547,0.2871083505451679,29.265209197998047,-0.0254076421260833,-1.0855998992919922,-0.106701374053955,-10.416091918945312,L,False,True,3,L,0,,0.21,LeftResponse,correct,True,16.0
127,149,1141.5456666666666,2318,1141.484,1141.49,1141.496,0.4786901369776612,51.17276841618432,0.472582682967186,50.58438491821289,0.4268464623019099,46.77312850952149,0.0762224048376083,7.737714767456055,0.0254045128822326,4.434256076812744,L,False,True,3,R,50,,0.242,LeftResponse,incorrect,True,7.0
128,150,1145.8086666666666,2321,1145.598,1145.603,1145.61,0.3525291062665323,37.7125787659048,0.3480693101882934,36.88581466674805,0.4725802317261696,39.05855941772461,-0.0558974603191018,-7.853360652923584,-0.0127020478248596,-2.401838779449463,L,False,True,3,R,200,,0.311,RightResponse,correct,True,14.0
129,151,1150.8296666666665,7980,1150.767,1150.772,1150.777,0.2885374076715736,31.41061817481263,-0.2820204049348831,-30.99685859680176,-0.1372028663754463,-15.545038223266602,-0.0609780848026275,-5.081504821777344,-0.0177831649780273,-3.949277639389038,L,False,True,3,L,50,,0.302,RightResponse,incorrect,True,10.0
130,152,1157.1416666666667,2334,1157.081,1157.088,1157.096,0.7698385047530154,69.00147276806383,0.7570490837097168,67.99250030517578,0.909568652510643,82.89664459228516,0.1397426500916481,11.756834030151367,-0.0050812065601348,1.4781570434570312,L,False,True,3,R,50,,0.242,RightResponse,correct,True,13.0
131,153,1160.2096666666666,2337,1160.097,1160.101,1160.109,0.6072610446497893,64.18099427480682,0.6072397828102112,64.07316589355469,0.3582341372966766,39.03403091430664,-0.0050815865397453,3.718795299530029,-0.1117925196886062,-2.425266027450561,L,False,True,3,R,100,,0.282,LeftResponse,incorrect,True,10.0
132,154,1166.9426666666666,7997,1166.88,1166.887,1166.895,0.6431121094542793,57.77062265632828,-0.6427908167243004,-57.37284469604492,-0.6682208478450775,-55.08870697021485,-0.0203261226415634,-6.767683029174805,-0.0381034612655639,-1.962936520576477,L,False,True,3,R,50,,0.395,RightResponse,correct,True,12.0
133,155,1170.2936666666665,5138,1170.173,1170.18,1170.193,0.6309699658680487,39.175351132175656,0.0863811373710632,-9.539228439331056,0.0889277188107371,-1.4089819192886353,0.6250291168689728,37.99620056152344,0.4623435735702514,34.06285858154297,L,False,True,3,R,100,,0.396,RightResponse,correct,True,13.0
134,156,1175.2606666666666,2363,1175.248,1175.256,1175.262,0.5786666463219178,55.38387446010735,0.5538362562656403,53.09634017944336,0.7012503743171692,74.8602523803711,0.1676916480064392,15.752847671508787,0.0431842803955078,2.2862319946289062,L,False,True,3,L,0,,0.295,RightResponse,incorrect,True,15.0
135,157,1178.7286666666666,2377,1178.518,1178.522,1178.528,0.4624513875133173,50.98860450908183,0.4547869190573692,50.929786682128906,0.4954385086894035,51.06850814819336,0.08384595438838,2.44839096069336,0.0558921694755554,5.958743095397949,L,False,True,3,L,200,,0.276,LeftResponse,correct,True,13.0
136,158,1182.4506666666666,8031,1182.038,1182.045,1182.051,0.5814088552927484,58.695482633643344,-0.5741692185401917,-58.01795959472656,-0.4446333535015583,-43.12382507324219,-0.0914656519889831,-8.892471313476562,0.0203160047531127,4.247925758361816,L,False,True,3,L,400,,0.347,LeftResponse,correct,True,15.0
137,159,1185.4946666666665,8035,1185.283,1185.289,1185.295,0.4300928081833267,44.5940791826142,-0.4166440963745117,-43.65077590942383,-0.3480875194072723,-32.98406219482422,0.1067123264074325,9.123686790466309,0.1574960947036743,12.123924255371094,L,False,True,3,R,200,,0.241,LeftResponse,incorrect,True,12.0
138,160,1247.3786666666665,8288,1246.968,1246.974,1246.979,0.4147483448628589,46.23733536009548,-0.3734651207923889,-40.64931869506836,-0.1956409104168415,-19.81815719604492,-0.1803884506225586,-22.034610748291016,-0.19309953879565,-20.88060569763184,L,False,True,4,R,400,,0.353,RightResponse,correct,True,14.0
139,161,1254.3276666666666,8298,1254.215,1254.222,1254.228,0.5808095419777958,56.69979700892167,-0.5767439343035221,-55.734619140625,-0.4624215066432953,-53.19469833374024,-0.0686014452949166,-10.417255401611328,-0.0406522452831268,-6.02850866317749,L,False,True,4,L,100,,0.287,LeftResponse,correct,True,12.0
140,162,1257.9206666666666,8303,1257.507,1257.512,1257.518,0.3866767429752884,39.459472736918144,-0.3836514391005039,-39.45071029663086,-0.3303024172782898,-27.16337203979492,-0.0482750125229358,-0.8315321803092957,-0.0609762370586395,-4.434633731842041,L,False,True,4,L,400,,0.358,LeftResponse,correct,True,13.0
141,163,1261.0636666666664,8305,1261.001,1261.009,1261.016,0.7945622667785321,75.54086848547365,-0.7519842684268951,-71.78076171875,-0.5614923760294914,-55.04139709472656,-0.2566103190183639,-23.53603744506836,-0.1651508808135986,-12.218842506408691,L,False,True,4,L,50,,0.348,LeftResponse,correct,True,11.0
142,164,1264.1616666666666,8307,1264.15,1264.158,1264.163,0.5002258007449584,45.83599952413763,-0.4293857300654053,-39.22010803222656,-0.2286615371704101,-18.89360809326172,-0.2566198483109474,-23.72176170349121,-0.1803955659270286,-17.877872467041016,L,False,True,4,L,0,,0.394,LeftResponse,correct,True,18.0
143,166,1277.5006666666666,2730,1277.487,1277.493,1277.499,0.4300080757404674,49.54838119690374,0.393773078918457,45.88981628417969,0.3658723905682564,40.329097747802734,0.1727706789970398,18.686006546020508,0.1473487615585327,14.088055610656738,L,False,True,4,L,0,,0.351,RightResponse,incorrect,True,17.0
144,167,1280.5066666666667,10852,1280.394,1280.397,1280.404,0.3624056172204192,37.41814090960963,-0.1092479228973388,-20.186742782592773,-0.0558974547311663,-14.112934112548828,-0.3455469906330108,-31.505756378173828,-0.203240156173706,-20.62439346313477,L,False,True,4,L,100,,0.297,LeftResponse,correct,True,10.0
145,168,1287.5926666666667,8323,1287.531,1287.538,1287.544,0.4774634977522418,47.37392746179706,-0.4573257267475128,-46.10237121582031,-0.3582504019141197,-35.617130279541016,0.1372026652097702,10.902310371398926,0.2718428671360016,29.63252639770508,L,False,True,4,L,50,,0.211,LeftResponse,correct,True,10.0
146,169,1290.9736666666665,8329,1290.562,1290.568,1290.572,0.3873012229252571,39.55131958689695,-0.3048944398760795,-33.56150436401367,-0.0711419284343719,-10.371012687683104,-0.2388338707387447,-20.92683219909668,-0.2820142805576324,-26.00718688964844,L,False,True,4,L,400,,0.257,LeftResponse,correct,True,12.0
147,170,1293.9506666666666,5456,1293.834,1293.84,1293.848,0.5401700536932432,55.52996584368838,-0.1117902696132659,-22.497018814086918,-0.0965501544997096,-14.87519359588623,0.5284757539629936,50.76870346069336,0.4928708374500274,36.46857070922852,L,False,True,4,L,100,,0.321,LeftResponse,correct,True,9.0
148,171,1297.0936666666666,8338,1296.678,1296.686,1296.692,0.5838757360833686,60.58860052202743,-0.5615056976675987,-59.17658996582031,-0.3582477211020887,-34.277278900146484,0.1600694432854652,13.00421905517578,0.0736731886863708,-0.484997421503067,L,False,True,4,L,400,,0.292,LeftResponse,correct,True,11.0
149,172,1300.0536666666665,8340,1299.828,1299.834,1299.84,0.571672898539908,52.816802581584255,-0.4573363997042179,-44.30171203613281,-0.4116069823503494,-43.07786178588867,0.3430062979459762,28.757137298583984,0.2286576628684997,21.549379348754883,L,False,True,4,L,200,,0.305,LeftResponse,correct,True,15.0
150,173,1303.8216666666665,8343,1303.61,1303.616,1303.622,0.5158026477155114,53.436280036592805,-0.5157776176929474,-53.42571640014648,-0.3709547370672226,-35.87133026123047,-0.0050813853740692,-1.0624741315841677,0.1930776238441467,12.217368125915527,L,False,True,4,L,200,,0.328,LeftResponse,correct,True,14.0
151,174,1309.6426666666666,8344,1309.43,1309.437,1309.442,0.4803077656217954,48.85628829761812,-0.4471692070364952,-47.11922073364258,-0.3252201005816459,-36.81822967529297,0.1753147169947624,12.911852836608888,0.0990795493125915,2.240278482437134,L,False,True,4,R,200,,0.293,RightResponse,correct,True,13.0
152,175,1312.8026666666665,2777,1312.74,1312.742,1312.746,0.1823814568139743,23.541728982074677,0.1727658808231353,22.126968383789062,0.0990904569625854,13.373750686645508,-0.0584375411272048,-8.03805160522461,-0.0304844379425048,-5.311702728271484,L,False,True,4,R,50,,0.304,LeftResponse,incorrect,True,9.0
153,176,1320.2756666666667,2782,1320.209,1320.214,1320.219,0.2842320019626371,28.5955387127986,0.281997412443161,28.24591636657715,0.3226779298856854,33.37656784057617,0.0355709195137023,4.457919120788574,0.0762157440185546,6.720859527587891,L,False,True,4,R,50,,0.345,RightResponse,correct,True,12.0
154,177,1323.7306666666666,2784,1323.72,1323.728,1323.734,0.6288481592968592,68.54669559817764,0.6148126423358917,66.56178283691406,0.5335628837347031,59.84685516357422,0.1321189701557159,16.376157760620117,0.1117859184741973,12.241034507751465,L,False,True,4,L,0,,0.381,LeftResponse,correct,True,20.0
155,178,1326.6576666666665,5479,1326.548,1326.552,1326.558,0.3868720113605718,44.80067751758239,0.2134249694645404,25.22289276123047,0.2642390355467796,26.123685836791992,0.3226758986711502,37.02575302124024,0.2845006585121155,28.380905151367188,L,False,True,4,R,100,,0.218,LeftResponse,incorrect,True,8.0
156,179,1330.0636666666664,2793,1329.851,1329.859,1329.865,0.6633078095753011,58.34056470611895,0.5614706873893738,49.2641487121582,0.5640392219647765,51.57659149169922,0.3531683981418609,31.25164222717285,0.2768962979316711,19.329633712768555,L,False,True,4,L,200,,0.308,LeftResponse,correct,True,12.0
157,180,1333.3396666666665,8373,1333.275,1333.285,1333.291,0.3828916960087754,30.13211721621016,-0.3429682850837707,-25.72886085510254,-0.2083422094583511,-12.703795433044434,-0.1702316254377365,-15.68343734741211,-0.2082816362380981,-13.83161449432373,L,False,True,4,L,50,,0.3,LeftResponse,correct,True,11.0
158,181,1337.0956666666666,8381,1337.034,1337.037,1337.042,0.2750575068251301,34.28607392082207,-0.24899223446846,-30.488832473754883,-0.1448251791298389,-21.411954879760746,0.1168738603591919,15.68330192565918,-0.0279412865638732,-1.8011776208877563,L,False,True,4,R,50,,0.274,LeftResponse,incorrect,True,10.0
159,183,1347.9166666666665,8384,1347.803,1347.81,1347.813,0.3536135106775249,39.52100423646231,-0.2261285446584224,-21.27324104309082,-0.1803962886333465,-20.60352325439453,0.2718609869480133,33.30704116821289,0.1930770874023437,21.132326126098636,L,False,True,4,R,100,,0.255,LeftResponse,incorrect,True,11.0
160,184,1351.2466666666667,8392,1351.134,1351.14,1351.146,0.5483398595413611,57.996669511792525,-0.4776414036750793,-52.66082382202149,-0.2794868648052215,-32.31418991088867,0.2693237662315368,24.299203872680664,0.1549660563468933,18.521747589111328,L,False,True,4,R,100,,0.343,LeftResponse,incorrect,True,14.0
161,185,1356.2516666666666,8400,1355.837,1355.845,1355.854,0.7304003860908038,64.14240363079243,-0.6961502246558666,-60.14522933959961,-0.457336138933897,-37.1645393371582,0.221042051911354,22.28899574279785,0.1346484422683715,6.189645290374756,L,False,True,4,R,400,,0.318,LeftResponse,incorrect,True,10.0
162,186,1361.3056666666666,8410,1361.244,1361.249,1361.254,0.3975333604364829,44.2159485570145,-0.2947294753976166,-32.198509216308594,-0.1372028402984142,-19.795080184936523,0.2667720168828964,30.303565979003903,0.2717939615249634,27.641298294067383,L,False,True,4,L,50,,0.4,RightResponse,incorrect,True,13.0
163,187,1365.2696666666666,8416,1364.857,1364.866,1364.873,0.7593974367968284,70.65967485187349,-0.7571455836296082,-68.85479736328125,-0.6529345065355301,-61.782264709472656,-0.0584382768720388,-15.868412971496582,-0.0711422385647893,-5.335669040679932,L,False,True,4,L,400,,0.363,LeftResponse,correct,True,13.0
164,188,1370.6436666666666,2870,1370.434,1370.438,1370.442,0.3485914187392848,38.67863865066477,0.2413389086723327,26.42029571533203,0.1473588049411773,17.184112548828125,0.2515382841229439,28.24898338317871,0.1499017179012298,17.692584991455078,L,False,True,4,R,200,,0.245,LeftResponse,incorrect,True,11.0
165,189,1373.4956666666665,5525,1373.486,1373.492,1373.503,0.8504307921484996,73.5905319179998,-0.1422682404518127,-44.57661819458008,-0.1016287505626678,-30.07332420349121,0.8384463489055634,58.553321838378906,0.5945049226284027,38.26993179321289,L,False,True,4,R,0,,0.204,LeftResponse,incorrect,True,19.0
166,190,1377.7596666666666,8434,1377.546,1377.552,1377.558,0.4093463267822898,37.19771268480295,-0.3937853574752807,-35.24446487426758,-0.1676923483610153,-21.7584285736084,0.1117922514677047,11.895273208618164,0.0203229784965515,3.602724552154541,L,False,True,4,L,200,,0.302,LeftResponse,correct,True,14.0
167,191,1380.4906666666666,8439,1380.377,1380.384,1380.391,0.8542122910284038,90.70830364234622,-0.8510291576385498,-90.16046905517578,-0.7164927124977112,-73.56678009033203,-0.0736750364303588,-9.954203605651855,-0.0558951199054718,-6.328709602355957,L,False,True,4,R,100,,0.2,RightResponse,correct,True,17.0
168,192,1383.3426666666667,8443,1383.33,1383.336,1383.341,0.4034788942794532,42.988777640456,-0.4014257043600082,-42.98355865478516,-0.1524379849433899,-22.35780906677246,0.0406524538993835,0.6698420643806458,0.0050812363624572,-1.9631985425949097,L,False,True,4,R,0,,0.228,RightResponse,correct,True,22.0
169,193,1387.0226666666665,10954,1386.958,1386.965,1386.97,0.4858323360645719,45.97567180111944,0.3937695324420929,41.75593566894531,0.4192224033176899,41.57584381103516,-0.2845674157142639,-19.240692138671875,-0.1651116609573364,-16.511112213134766,L,False,True,4,R,50,,0.341,RightResponse,correct,True,16.0
170,194,1391.2696666666666,2900,1391.255,1391.261,1391.269,0.3445864180180523,33.386139387145214,0.3404304087162018,32.6343879699707,0.3734949976205826,29.75033187866211,-0.0533566894009709,-7.044929027557373,-0.1447906494140625,-14.941132545471191,L,False,True,4,L,0,,0.279,LeftResponse,correct,True,21.0
171,195,1394.7546666666665,8464,1394.342,1394.349,1394.356,0.6864550907776137,67.29995235377007,-0.6859847139567137,-67.21307373046875,-0.4116069227457046,-44.57923126220703,0.0254079489968717,3.4185240268707275,-0.0101605653762817,-0.5311166048049927,L,False,True,4,R,400,,0.302,RightResponse,correct,True,12.0
172,196,1400.5456666666666,2915,1400.133,1400.139,1400.145,0.5189012062006476,55.84135426098839,0.5055683255195618,55.47628784179688,0.4598749754950404,46.33397674560547,-0.1168722808361053,-6.374820232391357,-0.1067019701004028,-4.942452430725098,L,False,True,4,R,400,,0.348,RightResponse,correct,True,11.0
173,197,1405.3206666666665,2920,1405.11,1405.117,1405.123,0.6782830953598022,85.79653969276757,0.6782830953598022,85.40381622314453,0.6809119060635567,75.34369659423828,0.0,-8.199658393859863,-0.0330274105072021,2.91011905670166,L,False,True,4,R,200,,0.399,RightResponse,correct,True,13.0
174,198,1408.5146666666665,2926,1408.302,1408.311,1408.319,0.6842105204309878,51.53872221304599,0.6732538342475891,51.48162841796875,0.4903571270406246,36.14746475219727,-0.1219561845064163,-2.4252469539642334,-0.1829190254211425,-11.062963485717772,L,False,True,4,R,200,,0.246,RightResponse,correct,True,12.0
175,200,1464.2656666666664,3165,1464.156,1464.161,1464.167,0.4567756958376852,47.242088755368606,0.4064950942993164,44.18333053588867,0.3480872511863708,35.89435577392578,-0.2083405256271362,-16.722686767578125,-0.2515060305595398,-27.13674736022949,L,False,True,5,L,100,,0.32,RightResponse,incorrect,True,16.0
176,201,1469.3916666666667,8692,1469.18,1469.185,1469.189,0.2648314754872763,31.931345506727634,-0.2616927921772003,-31.45861053466797,-0.1244979724287986,-17.25417137145996,0.0406520962715148,5.474180221557617,0.0025407522916793,5.335555553436279,L,False,True,5,R,200,,0.397,RightResponse,correct,True,11.0
177,203,1485.5866666666666,8712,1485.523,1485.527,1485.531,0.1706985341328332,20.181765212330745,-0.1702251434326172,-19.909637451171875,-0.0533565506339073,-7.114213466644287,-0.0127039402723312,-3.3030264377593994,-0.063511312007904,-7.1132354736328125,L,False,True,5,R,50,,0.353,LeftResponse,incorrect,True,15.0
178,205,1500.8916666666667,5799,1500.831,1500.835,1500.841,0.4158904946371424,44.24665741083752,-0.2744048424065113,-30.39704322814941,-0.0813027024269104,-12.033690452575684,0.3125170171260834,32.152549743652344,0.1880142539739608,17.323116302490234,L,False,True,5,L,50,,0.242,LeftResponse,correct,True,18.0
179,206,1504.2676666666666,3226,1504.251,1504.258,1504.263,0.3368825386503428,32.23247457362928,0.2921804040670395,27.554935455322266,0.2464537471532821,26.0311336517334,-0.1676915511488914,-16.722976684570312,-0.2260776758193969,-19.0051383972168,L,False,True,5,R,0,,0.342,RightResponse,correct,True,19.0
180,208,1510.2836666666665,5807,1510.071,1510.076,1510.085,0.5460950806367613,51.58490176034455,-0.0508155226707458,-17.80861473083496,0.0076223835349082,-4.226944923400879,0.5437256842851639,48.41337966918945,0.3505412340164184,33.50712585449219,L,False,True,5,L,200,,0.225,LeftResponse,correct,True,13.0
181,209,1513.5356666666667,3236,1513.322,1513.329,1513.334,0.450008709105042,45.66577165848407,0.429388016462326,43.0542106628418,0.4446360766887665,46.21918487548828,-0.1346616856753826,-15.221617698669434,-0.1117779612541198,-5.173166751861572,L,False,True,5,L,200,,0.281,LeftResponse,correct,True,12.0
182,210,1516.3876666666665,8745,1516.177,1516.181,1516.187,0.2736117206886083,29.36487683940266,-0.2693198695778847,-29.357236862182617,-0.1727707833051681,-21.735010147094727,-0.0482719540596008,-0.6698026657104492,-0.0330303264781832,-3.187542200088501,L,False,True,5,L,200,,0.241,LeftResponse,correct,True,11.0
183,211,1520.1096666666665,8749,1519.997,1520.002,1520.007,0.3198222521691306,32.78800163330449,-0.3099716231226921,-31.597740173339844,-0.1854777373373508,-19.33311653137207,0.0787646230310201,8.754191398620605,-0.0304889976978302,0.046196099370718,L,False,True,5,R,100,,0.348,LeftResponse,incorrect,True,19.0
184,212,1523.8436666666666,3255,1523.733,1523.739,1523.745,0.5841540183315505,63.1225764858119,0.5513167232275009,60.79034423828125,0.561504565179348,54.48754501342773,0.1930952817201614,16.999814987182617,0.0914531946182251,8.798933029174805,L,False,True,5,R,100,,0.237,RightResponse,correct,True,22.0
185,213,1528.6366666666665,3262,1528.626,1528.632,1528.639,0.4549419172965361,45.28300584713076,0.4471491426229477,44.368595123291016,0.4268509298563003,39.982704162597656,0.083843857049942,9.054191589355469,0.0330289602279663,0.4850414097309112,L,False,True,5,R,0,,0.321,LeftResponse,incorrect,True,18.0
186,214,1531.5676666666666,11263,1531.557,1531.559,1531.566,0.2910632762961932,29.007185649562835,-0.2032578289508819,-24.021299362182617,-0.0177853405475616,-9.146773338317873,-0.2083364725112915,-16.260196685791016,-0.2387731671333313,-14.617753982543944,L,False,True,5,R,0,,0.249,RightResponse,correct,True,21.0
187,215,1536.5716666666665,3279,1536.159,1536.166,1536.173,0.7248956058940726,79.76275646676483,0.6935429573059082,75.12789916992188,0.6072283899411559,64.48786926269531,0.2108833938837051,26.79358291625977,0.1321051716804504,12.30984115600586,L,False,True,5,R,400,,0.229,RightResponse,correct,True,10.0
188,216,1539.4356666666665,8771,1539.326,1539.331,1539.336,0.4194638375346095,46.88489646194945,-0.3150411248207092,-36.33137893676758,-0.1854777373373508,-22.56685256958008,0.2769458442926407,29.63485145568848,0.2769210934638977,26.606800079345703,L,False,True,5,L,100,,0.205,LeftResponse,correct,True,21.0
189,217,1542.0216666666665,8772,1541.911,1541.92,1541.927,0.7108779125501292,57.3309576498688,-0.7088727056980133,-55.43522644042969,-0.4293818473815918,-42.38394927978516,0.0533562898635864,14.62102508544922,0.0838458389043808,4.89679765701294,L,False,True,5,R,100,,0.255,RightResponse,correct,True,20.0
190,218,1546.0386666666666,3289,1545.928,1545.934,1545.942,0.5341279923968284,53.95239134509488,0.5233593583106995,51.9204330444336,0.4954507201910019,46.56542205810547,0.1067131403833627,14.667282104492188,0.0355697572231292,6.744369983673096,L,False,True,5,L,100,,0.265,LeftResponse,correct,True,19.0
191,219,1551.2936666666665,8781,1551.079,1551.085,1551.09,0.3519505822467828,38.596745289345314,-0.3353832066059112,-36.864444732666016,-0.1981766670942306,-16.7918643951416,-0.1067113727331161,-11.433348655700684,-0.1854583323001861,-16.25938606262207,L,False,True,5,L,200,,0.283,LeftResponse,correct,True,10.0
192,220,1554.5656666666666,3300,1554.155,1554.161,1554.166,0.2930677598428787,30.432519533793982,0.2921742796897888,30.41849136352539,0.3430059850215912,35.75583267211914,0.0228670537471771,-0.9239200949668884,0.0584296584129333,3.972321510314941,L,False,True,5,L,400,,0.234,LeftResponse,correct,True,9.0
193,221,1557.6886666666664,8788,1557.475,1557.483,1557.488,0.6252446639195086,60.4288286861449,-0.6199357472360134,-59.40733337402344,-0.3684129267930984,-33.28416442871094,0.0813053445890545,11.06399917602539,0.1752795577049255,12.863204002380373,L,False,True,5,R,200,,0.372,RightResponse,correct,True,9.0
194,222,1563.4716666666666,8796,1563.41,1563.417,1563.424,0.6184163945689023,61.27811024198022,-0.4928967803716659,-46.05628967285156,-0.4624221473932266,-48.459693908691406,0.3734857439994812,40.42060089111328,0.2311733961105346,20.968976974487305,L,False,True,5,R,50,,0.394,RightResponse,correct,True,17.0
195,223,1567.5636666666664,3321,1567.451,1567.455,1567.459,0.1896241415853012,22.516448337532683,0.1803950741887092,21.50421714782715,0.2718626111745834,31.852081298828125,0.0584374219179153,6.675259590148926,0.0152422785758972,3.6027228832244877,L,False,True,5,L,100,,0.238,LeftResponse,correct,True,18.0
196,224,1570.4736666666665,8805,1570.062,1570.068,1570.074,0.4980485414448065,49.15415731371454,-0.4954494535923004,-49.10618209838867,-0.3455367982387543,-40.65123748779297,-0.0508152395486831,2.1711888313293457,-0.0609695315361022,-7.344001293182373,L,False,True,5,R,400,,0.265,RightResponse,correct,True,8.0
197,225,1573.5376666666666,3330,1573.527,1573.534,1573.54,0.6275418427825687,67.6447933619273,0.6275366991758347,67.60375213623047,0.5894576609134674,54.99604034423828,-0.0025407932698726,-2.356006383895874,-0.017783761024475,6.743992805480957,L,False,True,5,R,0,,0.268,LeftResponse,incorrect,True,20.0
198,226,1577.4556666666665,8812,1577.243,1577.25,1577.256,0.444201005197208,43.02665006418724,-0.4420960396528244,-43.008567810058594,-0.2870952188968658,-28.871257781982425,-0.0431928783655166,-1.2472813129425049,-0.0203227996826171,-1.4780220985412598,L,False,True,5,R,200,,0.215,RightResponse,correct,True,8.0
199,228,1587.0566666666666,8823,1586.642,1586.649,1586.655,0.3392922344814475,32.93098797956485,-0.3125111758708954,-30.743066787719727,-0.0635194182395935,-12.957990646362305,-0.1321211010217666,-11.80312728881836,-0.1346491873264312,-14.250186920166016,L,False,True,5,L,400,,0.285,LeftResponse,correct,True,7.0
200,229,1590.1256666666666,8826,1589.714,1589.72,1589.725,0.3504496831238516,37.01774590174989,-0.3455431330949068,-35.50141143798828,-0.2159673124551773,-17.53147315979004,-0.0584373474121093,-10.48633861541748,-0.1803761124610901,-14.365489959716797,L,False,True,5,L,400,,0.27,LeftResponse,correct,True,6.0
201,231,1599.3766666666666,8836,1598.961,1598.968,1598.973,0.4230797840052396,42.41750123050227,-0.3861945057287812,-40.51368713378906,-0.1397435246035456,-15.568126678466797,-0.1727724149823188,-12.565252304077148,-0.1321090161800384,-12.009920120239258,L,False,True,5,L,400,,0.373,LeftResponse,correct,True,5.0
202,232,1603.1356666666666,3367,1603.073,1603.078,1603.082,0.2887198272595149,30.83239910547241,0.2616976648569107,28.31787872314453,0.2642386183142662,25.546199798583984,-0.1219568401575088,-12.1956787109375,-0.1041585803031921,-11.75542449951172,L,False,True,5,L,50,,0.363,LeftResponse,correct,True,14.0
203,233,1610.4716666666666,8846,1610.059,1610.067,1610.072,0.6648708578588095,66.30965779865491,-0.6377327740192413,-64.48957824707031,-0.5208588540554047,-56.10494995117188,0.1880163997411728,15.42935562133789,0.1295531988143921,10.391901016235352,L,False,True,5,R,400,,0.27,RightResponse,correct,True,4.0
204,235,1619.6766666666665,8865,1619.663,1619.671,1619.676,0.6859619939289364,70.43937566277852,-0.5818370580673218,-60.4012336730957,-0.3455405384302139,-40.99788665771485,-0.3633311092853546,-36.240814208984375,-0.2743682861328125,-30.13924217224121,L,False,True,5,L,0,,0.391,LeftResponse,correct,True,23.0
205,237,1630.4396666666667,8877,1630.426,1630.435,1630.442,0.56606577293319,53.02885696929136,-0.5437050834298134,-45.57102966308594,-0.4802038595080375,-55.966064453125,0.1575285419821739,27.117170333862305,0.0939944982528686,2.309441328048706,L,False,True,5,L,0,,0.327,LeftResponse,correct,True,21.0
