,trialIndex,targetOnsetTime,Unnamed: 0,startTime,peakVelocityTime,stopTime,amplitude,peakVelocity,saccade_vec_left_x,peak_velocity_vec_left_x,saccade_vec_right_x,peak_velocity_vec_right_x,saccade_vec_left_y,peak_velocity_vec_left_y,saccade_vec_right_y,peak_velocity_vec_right_y,whichEye,otherEyeMissingData,isBinocular,blockId,arrowDirection,latency,blankDuration,fixationDurationInSec,response,result,isSaccade,blankDurationInFrameCount
0,1,176.53066666666666,702,176.518,176.522,176.528,0.3920722755847241,42.57642225192439,0.2896493189036846,28.96491432189941,0.3125144601799547,28.987817764282227,0.2642422020435333,31.205535888671875,0.4674795866012573,39.35742568969727,L,False,True,0,R,0,,0.299,RightResponse,correct,True,1.0
1,2,180.53566666666669,5950,180.523,180.53,180.536,0.5627643096885466,57.13045083602592,-0.5588735640048981,-56.62587738037109,-0.5005222726613283,-52.75457763671875,-0.0660606366582214,-7.576174736022949,0.0,5.289153099060059,L,False,True,0,R,0,,0.222,LeftResponse,incorrect,True,1.0
2,3,183.72566666666668,5961,183.314,183.321,183.327,0.6494384050838706,67.1659387079153,-0.640182614326477,-66.83570098876953,-0.7901229858398438,-71.96633911132812,-0.1092541180551052,-6.652247428894043,-0.12703338265419,-12.12588119506836,L,False,True,0,R,400,,0.397,RightResponse,correct,True,1.0
3,4,189.14566666666667,726,188.933,188.939,188.944,0.3386787552366724,31.59550147393301,0.2566005885601043,24.343807220458984,0.3074343651533127,26.58585357666016,-0.2210417091846466,-20.140872955322266,-0.0482710599899292,-4.111130237579346,L,False,True,0,L,200,,0.293,NoResponse,incorrect,True,1.0
4,5,193.84666666666666,5985,193.733,193.74,193.745,0.54456677878578,56.83595197264113,-0.528297483921051,-54.953887939453125,-0.505592092871666,-52.98414611816406,-0.1321164071559906,-14.50502109527588,-0.2413710206747055,-22.19688606262207,L,False,True,0,R,100,,0.392,RightResponse,correct,True,1.0
5,6,197.23966666666666,746,197.131,197.136,197.142,0.4065174977974333,45.87755343817191,0.4064857363700866,45.66045379638672,0.3887385502457618,43.40116500854492,-0.0050815492868423,-4.457899570465088,-0.0482739806175231,-11.410204887390137,L,False,True,0,R,100,,0.391,LeftResponse,incorrect,True,1.0
6,7,199.94166666666666,756,199.88,199.887,199.893,0.4237220263204713,42.51348584794562,0.3963186740875244,37.27641296386719,0.4446354508399963,43.26247024536133,-0.1499061845242977,-20.44175910949707,0.0609778463840484,1.3627614974975586,L,False,True,0,R,50,,0.33,RightResponse,correct,True,1.0
7,8,202.99366666666668,6000,202.98,202.986,202.992,0.4997445246519565,51.55799489071873,-0.4826534986495971,-50.27431869506836,-0.5105793476104736,-59.90186309814453,-0.1295769661664962,-11.433272361755373,-0.0406526811420917,-8.176718711853027,L,False,True,0,L,0,,0.215,LeftResponse,correct,True,4.0
8,9,206.37866666666667,6003,206.316,206.322,206.328,0.4819477821155175,50.84477973642148,-0.4750404953956604,-50.6448974609375,-0.4420264959335327,-44.17991256713867,-0.0813030898571014,-4.503996849060059,0.0,11.733694076538086,L,False,True,0,L,50,,0.242,LeftResponse,correct,True,1.0
9,10,209.16366666666667,770,208.951,208.958,208.964,0.5767059525202772,59.75891083402964,0.411587581038475,43.93058776855469,0.5640304982662201,53.42399978637695,-0.4039621502161026,-40.51210784912109,-0.6250175386667252,-53.21693420410156,L,False,True,0,L,200,,0.204,RightResponse,incorrect,True,4.0
10,11,212.59866666666667,6015,212.485,212.491,212.496,0.5310833759642267,54.35884146952159,-0.5283966362476349,-53.48628616333008,-0.3937947452068329,-43.39810180664063,0.0533530414104461,9.70055866241455,-0.0355698466300964,-11.271470069885254,L,False,True,0,R,100,,0.336,LeftResponse,incorrect,True,4.0
11,12,215.93766666666667,6024,215.722,215.731,215.737,0.6802773792331174,63.98706298550217,-0.6757024526596069,-63.96663284301758,-0.5589220225811005,-58.570613861083984,-0.0787623524665832,1.6168216466903689,-0.1321183145046234,-11.04066562652588,L,False,True,0,R,200,,0.252,RightResponse,correct,True,7.0
12,13,219.99666666666667,6033,219.587,219.595,219.6,0.6583810126546416,57.614163479844095,-0.657983809709549,-57.57581329345703,-0.482730358839035,-41.851661682128906,0.0228662192821502,-2.1017985343933105,0.0584373623132705,9.908966064453123,L,False,True,0,L,400,,0.206,LeftResponse,correct,True,1.0
13,14,224.13466666666667,6045,224.073,224.079,224.084,0.4563382191321449,42.06050305763922,-0.3683874309062958,-37.670166015625,-0.3556804656982422,-39.44792938232422,0.2693237289786339,18.709476470947266,0.2693227902054786,24.483909606933597,L,False,True,0,R,50,,0.336,NoResponse,incorrect,True,1.0
14,15,228.74766666666667,6055,228.735,228.741,228.747,0.5750990419649492,60.77830054812584,-0.571580559015274,-60.483177185058594,-0.4522375017404556,-50.78986358642578,-0.0635182857513427,-5.982231616973877,-0.0965431928634643,-1.5474672317504885,L,False,True,0,R,0,,0.255,LeftResponse,incorrect,True,3.0
15,16,231.87466666666668,6067,231.762,231.769,231.776,0.7839451003816694,75.54847261096579,-0.7747967541217804,-74.40874481201172,-0.7240793630480766,-74.99486541748047,0.1194148659706115,13.073270797729492,0.175314549356699,19.102130889892575,L,False,True,0,L,100,,0.279,LeftResponse,correct,True,7.0
16,17,235.63866666666667,6076,235.525,235.531,235.535,0.3253607186313855,31.328346505577272,-0.2540682703256607,-25.060287475585938,-0.2057846784591674,-24.689550399780277,0.2032459378242492,18.800193786621094,0.3302971571683883,30.81222915649414,L,False,True,0,L,100,,0.275,RightResponse,incorrect,True,6.0
17,18,239.3276666666667,846,239.213,239.219,239.225,0.5722028538825018,60.87467341349182,0.5386389121413231,59.80022811889648,0.4268399029970169,47.64990997314453,0.1930912435054779,11.38677215576172,0.0889276303350925,6.952517509460449,L,False,True,0,L,100,,0.281,LeftResponse,correct,True,9.0
18,21,249.8396666666667,896,249.612,249.621,249.628,1.1034365181006835,105.78531221869012,1.0924979150295258,105.16311645507812,1.1610505133867264,95.2276611328125,-0.1549853384494781,-11.45649242401123,0.0127035975456237,-1.3858388662338257,L,False,True,0,L,200,,0.228,LeftResponse,correct,True,9.0
19,22,253.64566666666667,6139,253.633,253.639,253.646,0.6036974428684573,60.10269474572075,-0.579199880361557,-58.95996475219727,-0.5792371034622192,-61.55063247680664,0.1702295541763305,11.664324760437012,-0.1219563335180282,-7.137204170227051,L,False,True,0,L,0,,0.327,LeftResponse,correct,True,6.0
20,23,257.00466666666665,6151,256.592,256.598,256.604,0.5670247014435691,58.70737899681607,-0.556400865316391,-58.45807266235352,-0.3962928056716919,-49.44478225708008,0.1092478334903717,5.404635906219482,0.2261249274015426,16.653406143188477,L,False,True,0,R,400,,0.386,LeftResponse,incorrect,True,1.0
21,24,259.75666666666666,3913,259.729,259.74,259.746,0.8786678372791686,69.67641966690393,-0.060975968837738,-5.266043186187744,-0.015243113040924,-3.9723868370056152,0.8765495419502258,69.47713470458984,0.7341996282339096,55.24396514892578,L,False,True,0,L,0,,0.21,LeftResponse,correct,True,5.0
22,25,264.65766666666667,923,264.245,264.25,264.256,0.4549396178723636,48.9928892074293,0.4471475630998611,48.1791877746582,0.4370078206993639,49.08257675170898,-0.0838398039340972,-8.892078399658203,0.1295643448829651,19.42325782775879,L,False,True,0,L,400,,0.291,LeftResponse,correct,True,4.0
23,26,268.8206666666667,6177,268.606,268.613,268.619,0.705806605957582,71.62227616773374,-0.6984519362449646,-71.5304183959961,-0.6046633273363113,-60.16647338867188,0.1016260683536529,3.6262497901916495,-0.0508095622062683,-2.263323783874512,L,False,True,0,L,200,,0.301,LeftResponse,correct,True,8.0
24,27,271.9676666666667,6184,271.852,271.86,271.866,0.5722471145948937,48.2420391924509,-0.5715643167495728,-48.0565299987793,-0.5436819791793823,-48.548301696777344,-0.0279462337493896,4.226614475250244,-0.0050811767578125,7.298564910888672,L,False,True,0,R,100,,0.23,LeftResponse,incorrect,True,8.0
25,28,274.63666666666666,6196,274.625,274.635,274.64,0.7196778469105898,70.87044225833193,-0.7189195454120636,-69.44184112548828,-0.73159259557724,-59.92361068725586,0.03302863240242,-14.15804672241211,-0.0686009675264358,6.6060404777526855,L,False,True,0,L,0,,0.38,NoResponse,incorrect,True,4.0
26,29,280.39866666666666,6205,280.189,280.196,280.202,0.7099622308756195,71.77368507110334,-0.6960781812667847,-71.59363555908203,-0.6223549842834473,-63.7583236694336,0.1397194862365722,-5.080670833587647,0.0812993645668029,4.7347917556762695,L,False,True,0,R,200,,0.321,LeftResponse,incorrect,True,7.0
27,30,283.9046666666667,981,283.692,283.696,283.702,0.3075131659925829,31.040603433786405,0.3074187040328979,28.455162048339844,0.3582338988780975,35.63835144042969,-0.0076215267181396,-12.402532577514648,0.1676890701055526,14.782572746276855,L,False,True,0,R,200,,0.379,LeftResponse,incorrect,True,10.0
28,31,287.0146666666667,6230,286.603,286.611,286.617,0.9071580053705136,94.28895680731816,-0.9069303125143052,-93.39453887939452,-0.8254597783088684,-88.13036346435547,0.0203237533569335,12.956368446350098,0.0482741147279739,-0.3695608377456665,L,False,True,0,R,400,,0.282,RightResponse,correct,True,3.0
29,32,290.7536666666667,6233,290.64,290.649,290.655,0.7034979725237115,76.05228009284795,-0.6984841227531433,-75.22623443603516,-0.5842525959014893,-62.62776947021485,0.0838410854339599,11.178683280944824,0.06605726480484,14.804838180541992,L,False,True,0,L,100,,0.311,RightResponse,incorrect,True,11.0
30,33,294.4426666666667,999,294.033,294.039,294.046,0.5183188155682416,52.048907167415074,0.5183125883340836,52.01609802246094,0.5792873054742813,51.48436737060547,-0.0025407373905181,1.847778081893921,-0.0101631693542003,0.7622385621070862,L,False,True,0,R,400,,0.296,RightResponse,correct,True,2.0
31,34,297.6686666666667,6247,297.657,297.665,297.669,0.4802924213940958,47.78143373443525,-0.4801244139671325,-47.41132354736328,-0.4445001482963562,-38.12151336669922,-0.0127026438713073,5.935638904571533,-0.0762233585119247,-6.513632774353027,L,False,True,0,R,0,,0.384,RightResponse,correct,True,7.0
32,35,300.42066666666665,1020,300.361,300.367,300.372,0.4572706841463101,49.02403746237631,0.4420823156833648,46.12540054321289,0.4140970706939697,41.06329345703125,0.1168747395277023,16.607337951660156,0.1931002363562584,20.60352325439453,L,False,True,0,L,50,,0.297,RightResponse,incorrect,True,4.0
33,36,303.85966666666667,6266,303.796,303.803,303.81,0.6476156773154429,59.63882929284364,-0.5817450881004333,-46.7896614074707,-0.553803026676178,-59.214263916015625,0.2845675982534885,36.97996139526367,0.3684131279587745,13.050409317016602,L,False,True,0,R,50,,0.334,RightResponse,correct,True,7.0
34,37,306.5946666666667,6273,306.533,306.542,306.549,0.9777223693975756,93.1707967537988,-0.899308905005455,-80.80682373046875,-0.7187880277633667,-76.56377410888672,-0.3836463540792465,-46.37946319580078,-0.1702317893505096,-10.83288860321045,L,False,True,0,L,50,,0.389,RightResponse,incorrect,True,6.0
35,38,309.3756666666667,1046,309.311,309.316,309.322,0.4560930151874032,42.393949704343314,0.3480838406831026,33.35322570800781,0.3379040360450744,33.767215728759766,-0.2947176247835159,-26.16886138916016,-0.0660597532987594,-6.213239192962647,L,False,True,0,R,50,,0.208,LeftResponse,incorrect,True,9.0
36,40,621.3506666666667,1255,620.937,620.944,620.949,0.3522887393078641,35.25030497727034,0.3455448504537344,34.97022247314453,0.406521450728178,38.52719497680664,0.0686011090874672,-4.434810161590576,-0.0127038657665252,-4.64268159866333,L,False,True,1,R,400,,0.281,RightResponse,correct,True,4.0
37,41,625.8636666666666,6465,625.452,625.458,625.464,0.4903967529627536,48.8888116481767,-0.4827279448509216,-48.711700439453125,-0.4395534098148346,-41.85359954833984,0.0863869583699852,4.157660961151123,0.0584382498636841,1.2703968286514282,L,False,True,1,L,400,,0.381,LeftResponse,correct,True,3.0
38,42,629.8196666666666,1276,629.711,629.714,629.715,0.2030701018583956,27.48747101850532,0.1067124530673027,14.274531364440918,0.1676905825734138,19.37910842895508,-0.1727712899446487,-23.490398406982425,0.0152444690465927,5.751342296600342,L,False,True,1,R,100,,0.338,RightResponse,correct,True,14.0
39,43,632.9586666666667,6479,632.898,632.906,632.911,0.522751524433368,49.47149694376359,-0.5106576681137085,-48.13216018676758,-0.4700190871953964,-51.59759140014648,0.1117940172553062,11.433466911315918,0.0330297350883483,7.460566997528076,L,False,True,1,R,50,,0.336,LeftResponse,incorrect,True,12.0
40,44,635.6566666666666,6483,635.645,635.652,635.657,0.4634021546616093,43.54661096143338,-0.462398037314415,-43.53729248046875,-0.4547460377216339,-44.48130798339844,-0.0304895397275686,-0.9008272290229796,0.1346616223454475,12.98110580444336,L,False,True,1,L,0,,0.207,RightResponse,incorrect,True,6.0
41,45,639.1206666666667,6494,638.907,638.913,638.92,0.5157593148516422,45.76912953046505,-0.4750981330871582,-43.58361053466797,-0.5436886548995972,-54.32344818115234,0.2007222827523946,13.974337577819824,0.1143352016806602,9.8628568649292,L,False,True,1,R,200,,0.384,RightResponse,correct,True,13.0
42,46,643.9206666666666,1303,643.858,643.865,643.871,0.4971161092384757,49.14272868676633,0.4954510927200317,48.09006881713867,0.4598674327135086,44.27763366699219,0.040652684867382,10.116969108581545,-0.10417240858078,-8.546296119689941,L,False,True,1,L,50,,0.244,LeftResponse,correct,True,15.0
43,47,647.1846666666667,1316,646.972,646.98,646.985,0.5029709137757886,42.15680170851598,0.4370145201683044,39.3128776550293,0.4370144754648208,47.37403106689453,-0.2489940747618675,-15.221484184265137,-0.1778544820845127,-16.33026885986328,L,False,True,1,R,200,,0.21,RightResponse,correct,True,12.0
44,48,650.0036666666666,1323,649.992,649.996,650.001,0.3684922949887435,41.45320333147513,0.3430055007338524,39.59001159667969,0.3455463424324989,39.1049690246582,-0.1346617909148335,-12.288166999816896,-0.0813054256141185,-8.338425636291504,L,False,True,1,R,0,,0.291,LeftResponse,incorrect,True,9.0
45,49,654.7206666666667,6528,654.307,654.314,654.319,0.4086062752846199,37.84201652150429,-0.4014336988329887,-37.76421737670898,-0.3201182782649994,-37.04653549194336,0.0762238390743732,2.4253041744232178,-0.0076223686337471,1.6168677806854248,L,False,True,1,L,400,,0.247,RightResponse,incorrect,True,2.0
46,50,657.8096666666667,1342,657.402,657.407,657.413,0.5244697276931355,58.230405796473896,0.4802055805921554,52.29376983642578,0.44717738032341,39.405311584472656,0.2108817100524902,25.615264892578125,0.2947305366396904,23.62931251525879,L,False,True,1,L,400,,0.217,LeftResponse,correct,True,5.0
47,51,660.8156666666666,1349,660.603,660.609,660.615,0.6455907070236219,66.87671928547867,0.6046930700540543,64.88125610351562,0.8028779625892639,82.82893371582031,-0.2261275127530098,-16.214752197265625,-0.3353833481669426,-25.500244140625,L,False,True,1,R,200,,0.219,LeftResponse,incorrect,True,11.0
48,52,663.7546666666667,1357,663.744,663.75,663.755,0.5300689990250822,58.36136375039629,0.5233956500887871,56.7974739074707,0.6758357435464859,69.8473892211914,0.0838459134101867,13.41997528076172,-0.0177854970097541,4.365511894226074,L,False,True,1,L,0,,0.227,RightResponse,incorrect,True,12.0
49,53,666.8856666666667,6561,666.771,666.778,666.784,0.5769035148041904,57.57375775542412,-0.574189119040966,-56.28716659545898,-0.5208424553275108,-53.05436706542969,-0.0558974146842956,-12.10340690612793,0.1041706055402755,12.357219696044922,L,False,True,1,L,100,,0.312,LeftResponse,correct,True,13.0
50,54,669.8506666666667,6572,669.642,669.648,669.653,0.414620013517499,47.49089536932775,-0.41412153840065,-47.4633674621582,-0.4522294104099273,-46.40066909790039,-0.0203250348567962,-1.6167535781860352,-0.0863840579986572,-13.85842990875244,L,False,True,1,R,200,,0.236,RightResponse,correct,True,14.0
51,55,672.7646666666667,6574,672.651,672.66,672.667,0.7225553064129671,61.76615431275634,-0.7215495901182294,-61.69200134277344,-0.5640382766723633,-63.88747024536133,-0.0381098389625549,3.0256881713867188,0.0482720136642456,15.49782371520996,L,False,True,1,R,100,,0.346,RightResponse,correct,True,12.0
52,56,676.2406666666667,1386,676.182,676.187,676.191,0.2773037013167465,33.38971736029613,0.2693206183612346,32.31389617919922,0.4242893308401108,42.03666687011719,-0.0660586655139923,-8.40745735168457,-0.0152445286512374,-5.4048848152160645,L,False,True,1,R,50,,0.339,RightResponse,correct,True,14.0
53,57,681.6746666666667,6589,681.66,681.667,681.673,0.4836966267726455,44.5559581413487,-0.4776531681418419,-44.50851058959961,-0.4445858597755432,-50.80992889404297,0.0762225538492202,2.055697202682495,-0.137200266122818,-16.029802322387695,L,False,True,1,L,0,,0.228,LeftResponse,correct,True,15.0
54,58,686.7076666666667,1405,686.495,686.5,686.505,0.3672895336444592,40.21400640707971,0.3455469906330108,39.19742965698242,0.3633213937282562,40.44349670410156,0.1244944930076599,8.98486614227295,0.1067119091749191,3.9497225284576416,L,False,True,1,L,200,,0.312,RightResponse,incorrect,True,13.0
55,59,689.8426666666667,6623,689.732,689.739,689.745,0.7220643607852756,71.36553472039434,-0.7063319981098175,-71.0030746459961,-0.5106665343046188,-64.50945281982422,0.1499068029224872,7.183518409729004,0.1880171820521354,15.868268966674805,L,False,True,1,L,100,,0.267,LeftResponse,correct,True,11.0
56,61,697.4866666666667,6647,697.271,697.278,697.284,0.5062810453573846,46.85291531252071,-0.4954480081796646,-45.98780059814453,-0.2693025469779968,-31.295351028442383,0.1041718199849128,8.962023735046387,0.1956319808959961,7.183125972747803,L,False,True,1,L,200,,0.284,RightResponse,incorrect,True,16.0
57,62,701.3796666666667,6654,701.165,701.172,701.178,0.5663161170149232,50.55829212107794,-0.5615025721490383,-49.01326751708984,-0.4801667630672455,-49.702728271484375,0.073680430650711,12.40324592590332,0.0940051078796386,9.146418571472168,L,False,True,1,L,200,,0.379,LeftResponse,correct,True,19.0
58,63,705.5476666666667,9581,705.434,705.439,705.448,0.7639832977468066,69.45614993411559,0.297272078692913,31.413408279418945,0.2489889711141586,32.68294143676758,-0.7037753835320473,-61.94638442993164,-0.8562316596508026,-58.73810958862305,L,False,True,1,R,100,,0.269,RightResponse,correct,True,10.0
59,64,709.3646666666667,6681,708.954,708.961,708.966,0.5688248250931658,53.45001957639299,-0.4954345524311065,-46.54060745239258,-0.3556747436523437,-40.18660736083984,-0.2794750183820724,-26.284528732299805,-0.0228665769100189,-0.8777061104774475,L,False,True,1,R,400,,0.237,RightResponse,correct,True,4.0
60,65,712.8456666666667,6692,712.734,712.741,712.748,0.7577332200762961,73.06225986450366,-0.7063048204872757,-68.45951080322266,-0.6250095451250672,-59.613746643066406,-0.2743959426879883,-25.522327423095703,-0.0457343058660626,-13.581689834594728,L,False,True,1,L,100,,0.241,RightResponse,incorrect,True,9.0
61,66,715.4396666666667,4319,715.327,715.333,715.342,0.5503872015158952,49.53370210654568,-0.1778530478477478,-27.69451141357422,-0.1930952221155166,-32.01286697387695,0.5208592563867569,41.06825637817383,0.6326401755213737,40.00492477416992,L,False,True,1,L,100,,0.202,RightResponse,incorrect,True,12.0
62,67,719.8106666666666,6723,719.699,719.707,719.712,0.4594134380867218,42.67376034396653,-0.4496923834085464,-42.33597183227539,-0.4141030013561249,-46.95301055908203,0.0940078049898147,5.358666896820068,0.1321156620979309,12.449332237243652,L,False,True,1,R,100,,0.333,LeftResponse,incorrect,True,15.0
63,68,723.4206666666666,6737,723.361,723.368,723.374,0.6252123985206762,59.78014609057189,-0.6250265389680862,-59.29227828979492,-0.7138490974903107,-70.55159759521484,-0.015243649482727,-7.621784687042236,-0.0635178089141845,-9.492865562438965,L,False,True,1,L,50,,0.237,RightResponse,incorrect,True,13.0
64,69,726.4226666666667,6753,726.41,726.415,726.421,0.5524467478982429,62.56951265768572,-0.5309992954134941,-57.51173400878906,-0.5157281458377838,-60.0725212097168,-0.1524373888969421,-24.64435768127441,-0.3099701404571533,-21.088157653808597,L,False,True,1,L,0,,0.344,LeftResponse,correct,True,13.0
65,70,729.9866666666667,6765,729.575,729.581,729.586,0.4101033478354724,42.01342594874245,-0.401440616697073,-41.73781967163086,-0.3683851957321167,-36.7689094543457,0.0838462114334106,4.8044114112854,0.0381059646606445,-0.993061065673828,L,False,True,1,R,400,,0.316,LeftResponse,incorrect,True,3.0
66,71,732.4296666666667,1553,732.366,732.373,732.378,0.5771724960516508,58.03800377078682,0.4243108034133911,41.73820495605469,0.4318920373916626,46.21478271484375,-0.3912651687860489,-40.32780838012695,-0.2413715198636055,-17.138437271118164,L,False,True,1,R,50,,0.237,RightResponse,correct,True,16.0
67,72,736.6936666666667,1562,736.633,736.64,736.646,0.6050346021841708,58.07354202167608,0.6046930700540543,58.04413604736328,0.7723852396011353,70.21739196777344,-0.0203263589646667,1.847851037979126,0.2007114291191101,29.564117431640625,L,False,True,1,L,50,,0.264,RightResponse,incorrect,True,15.0
68,73,741.6856666666666,6791,741.624,741.631,741.637,0.6897643127882798,63.8535658167926,-0.6402510572224855,-62.73136520385742,-0.6096253395080566,-64.77336120605469,0.2566191554069519,11.918627738952637,0.2362885177135467,18.82453727722168,L,False,True,1,L,50,,0.335,LeftResponse,correct,True,18.0
69,74,745.1446666666667,6798,744.734,744.741,744.746,0.3731744405687421,33.58748557914373,-0.3709536120295524,-33.21487808227539,-0.3379101306200027,-28.31675338745117,-0.0406519472599029,-4.989094257354736,0.2083410322666168,11.456539154052734,L,False,True,1,R,400,,0.225,RightResponse,correct,True,6.0
70,75,748.0636666666667,6811,747.648,747.657,747.663,0.5896559086547426,57.97614422653155,-0.5843716561794281,-57.16654586791992,-0.4979180991649627,-45.634647369384766,-0.0787645736709237,-9.65501594543457,-0.1702237725257873,-6.490137577056885,L,False,True,1,L,400,,0.274,LeftResponse,correct,True,5.0
71,76,753.6636666666667,1606,753.649,753.656,753.662,0.5095741519535274,50.10796459394736,0.5055997483432293,49.89026641845703,0.5386114120483398,54.784698486328125,0.0635193735361099,4.665772438049316,0.1549737155437469,12.587393760681152,L,False,True,1,R,0,,0.368,RightResponse,correct,True,12.0
72,77,757.5186666666667,6832,757.306,757.312,757.318,0.4399909214486305,48.687784095988576,-0.431928314268589,-46.68059921264648,-0.4268162846565246,-45.6839485168457,0.0838447511196136,13.835533142089844,0.1041690707206726,-0.7622146010398865,L,False,True,1,L,200,,0.35,LeftResponse,correct,True,18.0
73,78,760.5786666666667,1624,760.565,760.57,760.575,0.4853873525890745,49.45492809528248,0.2489940747618675,25.176559448242188,0.4751174193806946,44.34758377075195,-0.4166567325592041,-42.56678009033203,-0.5132344365119934,-50.815425872802734,L,False,True,1,R,0,,0.26,RightResponse,correct,True,11.0
74,79,763.9796666666667,6845,763.917,763.925,763.932,0.7623260048529308,80.2415281322212,-0.7622201442718506,-80.24119567871094,-0.5385536253452301,-56.78823471069336,-0.0127039104700088,0.2309827804565429,-0.2235893383622169,-9.539514541625977,L,False,True,1,R,50,,0.332,RightResponse,correct,True,17.0
75,80,1177.5086666666666,1876,1177.497,1177.503,1177.509,0.5556330660557088,57.32139828194062,0.5462596490979195,57.18990707397461,0.4877697229385376,47.34531784057617,0.101629227399826,3.880364656448364,-0.0330299884080886,3.464685201644897,L,False,True,2,L,0,,0.234,RightResponse,incorrect,True,10.0
76,81,1181.6296666666665,7083,1181.217,1181.225,1181.231,0.6345003794425768,64.05872454672397,-0.6274981498718262,-62.08011245727539,-0.3938147537410259,-39.01195526123047,-0.0940042734146118,-15.798095703125,0.0990909598767757,12.034125328063965,L,False,True,2,R,400,,0.313,LeftResponse,incorrect,True,4.0
77,82,1184.3156666666666,1893,1184.259,1184.262,1184.268,0.2489623062003726,28.66179353726721,0.246408462524414,28.220195770263672,0.3226791769266128,32.42966079711914,0.0355682373046875,5.0118818283081055,0.1930997758172452,18.61702537536621,L,False,True,2,L,50,,0.227,LeftResponse,correct,True,16.0
78,83,1188.2916666666665,1899,1188.184,1188.19,1188.195,0.2859129095965198,26.59808603718589,0.276921272277832,26.583600997924805,0.4268439952284097,37.69521331787109,-0.0711393058300018,-0.8776894807815552,0.0533565282821655,8.269112586975098,L,False,True,2,R,100,,0.377,RightResponse,correct,True,18.0
79,84,1191.8266666666666,7099,1191.713,1191.72,1191.726,0.5729611135322673,53.20423472960528,-0.5614373981952667,-52.86421203613281,-0.4420908503234386,-50.30682373046875,-0.1143349707126617,-6.0054707527160645,-0.0914686024188995,-5.890024185180664,L,False,True,2,L,100,,0.295,LeftResponse,correct,True,17.0
80,85,1195.0486666666666,7114,1194.639,1194.645,1194.651,0.5617131234739454,63.04380628022282,-0.5589251518249512,-62.54405212402344,-0.5614993721246719,-61.9704704284668,0.0558955073356628,7.922313690185547,0.0686014043167233,-1.6630651950836182,L,False,True,2,R,400,,0.274,RightResponse,correct,True,7.0
81,86,1198.9246666666666,1933,1198.859,1198.864,1198.87,0.2977553468091394,27.576470133553016,0.269294261932373,23.718997955322266,0.2235830128192901,18.43172264099121,0.127038761973381,14.066657066345217,0.1473635733127594,10.902092933654783,L,False,True,2,R,50,,0.389,LeftResponse,incorrect,True,15.0
82,87,1202.1636666666666,7131,1202.05,1202.057,1202.064,0.6148279196440711,60.13301203355328,-0.6148069202899933,-59.88753128051758,-0.5538828521966934,-54.71858596801758,-0.0050814896821975,5.427958488464356,0.0686005800962448,4.827460289001465,L,False,True,2,L,100,,0.351,RightResponse,incorrect,True,16.0
83,88,1204.9946666666665,7143,1204.935,1204.94,1204.946,0.5872140185057634,67.92141300616476,-0.586768627166748,-64.10363006591797,-0.630041778087616,-63.74348831176758,-0.0228666067123413,-22.45090103149414,-0.1880186572670936,-19.05594825744629,L,False,True,2,L,50,,0.38,LeftResponse,correct,True,18.0
84,89,1208.1176666666665,7154,1208.056,1208.063,1208.07,0.5677841952105378,52.35491312483006,-0.5665037035942078,-52.1466064453125,-0.5056042755022645,-55.27238845825195,0.0381109714508056,-4.665657997131348,0.1473641246557235,13.904922485351562,L,False,True,2,L,50,,0.285,LeftResponse,correct,True,17.0
85,90,1212.1096666666665,7178,1211.998,1212.005,1212.01,0.3725109403968022,35.9778087578271,-0.3200860619544983,-31.708438873291016,-0.4014433771371841,-38.78150939941406,0.1905500292778015,16.99934196472168,0.2972670271992683,29.819190979003903,L,False,True,2,R,100,,0.336,LeftResponse,incorrect,True,19.0
86,91,1215.7196666666666,2005,1215.709,1215.716,1215.723,0.6464737355547624,62.88550122077837,0.6453494131565094,62.50258255004883,0.6021626591682434,49.73006057739258,-0.0381107032299041,6.929172992706299,-0.14736407995224,-18.963468551635746,L,False,True,2,R,0,,0.232,RightResponse,correct,True,13.0
87,92,1218.5546666666667,7203,1218.492,1218.499,1218.506,0.7170106665272822,72.13239309805195,-0.7163621485233307,-72.02918243408203,-0.6224648468196392,-67.81271362304688,-0.0304888188838958,-3.857332229614258,-0.0762232393026351,-9.562545776367188,L,False,True,2,R,50,,0.256,LeftResponse,incorrect,True,16.0
88,93,1223.3016666666665,7210,1223.238,1223.245,1223.251,0.5582082470757376,55.70134358435195,-0.5410846471786499,-52.9991569519043,-0.4979591816663742,-50.16487884521485,0.1372000426054,17.138525009155273,0.027948647737503,2.494595527648926,L,False,True,2,R,50,,0.225,RightResponse,correct,True,19.0
89,94,1225.9496666666666,7216,1225.94,1225.946,1225.951,0.3857625034374158,47.67045088005132,-0.3836146295070648,-46.6292610168457,-0.4293822199106216,-44.43931198120117,0.040651261806488,9.90877914428711,-0.0381103456020355,-0.646719753742218,L,False,True,2,L,0,,0.251,LeftResponse,correct,True,12.0
90,95,1229.0346666666665,2031,1228.621,1228.628,1228.637,0.5737626564525677,39.54485619009122,0.5690122246742249,39.05004501342773,0.3836544135119766,35.062469482421875,-0.0736795365810394,-6.2361555099487305,-0.0482729375362396,-11.178902626037598,L,False,True,2,L,400,,0.299,LeftResponse,correct,True,6.0
91,96,1234.6256666666666,2035,1234.618,1234.623,1234.628,0.3302716110324984,34.52444833748292,0.304861843585968,32.980445861816406,0.4624003469944,42.68317413330078,-0.127037763595581,-10.209197998046877,0.0076222419738769,-0.9239035248756408,L,False,True,2,L,0,,0.321,LeftResponse,correct,True,11.0
92,97,1239.9256666666665,7238,1239.715,1239.722,1239.728,0.5452968471026377,53.96093716734478,-0.5435836315155029,-51.90990829467773,-0.332841482013464,-43.51649475097656,0.0431912839412689,14.735812187194824,-0.073682889342308,-6.998704433441162,L,False,True,2,R,200,,0.347,LeftResponse,incorrect,True,17.0
93,98,1243.2236666666665,7243,1242.813,1242.819,1242.824,0.4649350235564002,52.94697124925617,-0.4648725390434265,-52.88373565673828,-0.416653424501419,-43.53604888916016,-0.0076222419738769,-2.586941719055176,0.0025407075881958,-3.3952932357788086,L,False,True,2,R,400,,0.234,LeftResponse,incorrect,True,5.0
94,99,1247.3196666666665,7256,1246.906,1246.914,1246.921,1.007620557560612,94.94969004159812,-0.9956294298171996,-93.7440414428711,-0.7621803283691406,-88.73670959472656,0.1549878269433975,15.083047866821287,0.0177854821085929,3.141336441040039,L,False,True,2,R,400,,0.349,RightResponse,correct,True,8.0
95,100,1251.9456666666665,7266,1251.835,1251.841,1251.846,0.5091234310238546,56.839426174385366,-0.4496363997459411,-46.4879035949707,-0.3175812363624573,-37.46307373046875,-0.2388174533843994,-32.70466613769531,-0.218503713607788,-32.12875747680664,L,False,True,2,R,100,,0.321,RightResponse,correct,True,22.0
96,101,1256.1796666666667,7280,1255.967,1255.972,1255.977,0.3750779966167616,37.92279090299004,-0.3708895444869995,-37.62017822265625,-0.429337203502655,-48.40685272216797,0.0558967739343643,4.781240463256836,0.0609759986400604,3.672414779663086,L,False,True,2,L,200,,0.312,RightResponse,incorrect,True,20.0
97,102,1259.5976666666666,7291,1259.386,1259.393,1259.399,0.5438908594413839,49.63666358042588,-0.5182116031646729,-49.557918548583984,-0.5106560289859772,-50.74217224121094,-0.1651484221220016,-2.7948310375213623,-0.23120778799057,-22.3817138671875,L,False,True,2,L,200,,0.259,LeftResponse,correct,True,23.0
98,103,1262.3416666666665,2107,1262.13,1262.136,1262.142,0.566118052884641,57.033642341274906,0.4979609400033951,52.01375579833984,0.51577328145504,53.17140579223633,-0.2693038284778595,-23.396699905395508,-0.2972590774297714,-23.443517684936523,L,False,True,2,R,200,,0.234,RightResponse,correct,True,22.0
99,104,1264.9346666666665,2111,1264.921,1264.931,1264.935,0.796639676660824,71.60132620983758,0.5157127678394318,43.604862213134766,0.6783683188259602,64.58108520507812,-0.6071862280368805,-56.79230499267578,-0.6275190114974976,-56.86204528808594,L,False,True,2,L,0,,0.205,LeftResponse,correct,True,10.0
100,105,1270.5846666666666,2120,1270.518,1270.526,1270.531,0.4280141110896805,39.43211009409667,0.4192069917917251,35.75405502319336,0.5106963366270065,49.79937362670898,-0.0863804221153259,-16.629457473754883,-0.0279412865638732,-0.7851334810256958,L,False,True,2,L,50,,0.201,RightResponse,incorrect,True,18.0
101,106,1273.6496666666665,2125,1273.443,1273.446,1273.449,0.1973890617719282,24.05873016135114,0.1676762700080871,20.047218322753903,0.3277560248970985,40.99836730957031,-0.1041494607925415,-13.30156135559082,-0.0533515810966491,-8.568568229675293,L,False,True,2,L,200,,0.22,LeftResponse,correct,True,21.0
102,107,1276.5966666666666,2135,1276.481,1276.488,1276.493,0.3625368488933459,35.4411222829051,0.3277463018894195,32.52069854736328,0.3582421690225601,35.33926773071289,-0.1549687981605529,-14.088197708129885,-0.0863804817199707,-5.058112621307373,L,False,True,2,L,100,,0.259,LeftResponse,correct,True,21.0
103,108,1280.6556666666665,2143,1280.642,1280.649,1280.654,0.3193693067844165,37.366874840111024,0.2820090055465698,24.274641036987305,0.320125550031662,32.19743728637695,-0.1498922109603881,-28.408187866210938,-0.1067095696926117,-12.24156093597412,L,False,True,2,R,0,,0.348,LeftResponse,incorrect,True,9.0
104,109,1284.5656666666666,7344,1284.154,1284.162,1284.168,0.7906742718080566,74.66606662958743,-0.7620415687561035,-73.1319351196289,-0.6478093564510345,-70.80805969238281,-0.2108517289161682,-15.057940483093262,-0.2184961140155792,-25.12933921813965,L,False,True,2,L,400,,0.366,LeftResponse,correct,True,7.0
105,110,1289.2406666666666,7357,1289.126,1289.132,1289.138,0.438698146884015,42.09165370719754,-0.3759329319000244,-36.60038375854492,-0.3658405840396881,-38.17748641967773,0.2261205315589904,20.787477493286133,0.0686007738113403,11.086965560913086,L,False,True,2,R,100,,0.388,LeftResponse,incorrect,True,20.0
106,111,1293.4836666666665,7365,1293.27,1293.278,1293.284,0.8227564319507452,77.60518044018704,-0.7443102598190308,-73.34444427490234,-0.6833651661872864,-65.54222106933594,0.3506142944097519,25.360530853271484,0.1981761008501052,19.494274139404297,L,False,True,2,R,200,,0.31,RightResponse,correct,True,20.0
107,112,1298.3006666666665,7373,1298.285,1298.293,1298.299,0.6441405790033167,58.88778373202,-0.6401999294757843,-58.82360076904297,-0.4979269802570343,-54.27320098876953,-0.0711416602134704,2.748647928237915,0.0990881025791168,5.751270294189453,L,False,True,2,R,0,,0.214,RightResponse,correct,True,12.0
108,113,1302.1936666666666,7387,1302.134,1302.142,1302.148,0.9221104681491852,94.27453852454332,-0.9221104681491852,-93.98799896240234,-0.815511018037796,-66.76852416992188,0.0,-7.344703197479248,-0.1803955920040607,-20.92682647705078,L,False,True,2,R,50,,0.379,RightResponse,correct,True,21.0
109,114,1305.3906666666664,7398,1305.38,1305.389,1305.395,0.8757155980103499,79.85484271067762,-0.8535863906145096,-78.91464233398438,-1.0010091960430143,-87.81229400634766,-0.1956222951412201,-12.217820167541504,-0.4979926198720932,-39.22053146362305,L,False,True,2,R,0,,0.284,LeftResponse,incorrect,True,11.0
110,115,1309.8246666666666,7406,1309.611,1309.618,1309.625,0.6368630839706753,59.67313703210021,-0.5944039821624756,-53.39059829711914,-0.3556997627019882,-30.904232025146484,-0.2286449074745178,-26.651966094970703,-0.1778478324413299,-19.886306762695312,L,False,True,2,L,200,,0.219,LeftResponse,correct,True,19.0
111,116,1312.5896666666665,10021,1312.467,1312.471,1312.481,0.701976637421377,74.06813749183931,0.2642354518175125,51.16166305541992,0.2820237055420875,54.62662506103516,-0.6503466963768005,-53.55906295776367,-0.4370070267468691,-32.89128112792969,L,False,True,2,L,100,,0.285,LeftResponse,correct,True,23.0
112,117,1315.6076666666665,10024,1315.183,1315.188,1315.192,0.4515128416528802,55.360311976771904,0.1473613381385803,14.620675086975098,0.1676913537085056,18.108842849731445,-0.4267885684967041,-53.39475631713867,-0.4065149053931236,-42.54541015625,L,False,True,2,L,400,,0.224,RightResponse,incorrect,True,6.0
113,118,1318.8556666666666,2234,1318.641,1318.646,1318.653,0.3990041764157033,39.77505549878319,0.3988747596740722,39.772098541259766,0.406502902507782,37.18571853637695,-0.0101616382598876,0.4849923253059387,0.0863866358995437,7.04491138458252,L,False,True,2,R,200,,0.22,RightResponse,correct,True,18.0
114,119,1323.7056666666665,7445,1323.288,1323.296,1323.3,0.3252193298688528,30.284088597962757,-0.3251796364784241,-30.25444793701172,-0.1524475328624248,-18.593982696533203,0.0050809979438781,-1.3395529985427856,0.2007132768630981,18.662580490112305,L,False,True,2,L,400,,0.282,LeftResponse,correct,True,9.0
115,120,1505.2086666666667,7575,1505.146,1505.153,1505.16,0.7395746146378483,71.55587194212747,-0.7214766442775726,-71.29359436035156,-0.6936232596635818,-81.0267333984375,-0.1626101545989513,-6.120965003967285,-0.3379208669066429,-24.43724632263184,L,False,True,3,R,50,,0.337,RightResponse,correct,True,20.0
116,121,1511.0116666666665,2392,1510.951,1510.957,1510.962,0.4320342487202262,43.412546958838135,0.4319147318601608,43.16860580444336,0.6021459421608597,59.08277130126953,0.0101615190505981,4.59572696685791,-0.0940059423446655,-4.203713893890381,L,False,True,3,L,50,,0.293,LeftResponse,correct,True,19.0
117,122,1513.8266666666666,4753,1513.709,1513.712,1513.718,0.2922526918339236,31.032527026334545,0.00762140750885,9.584633827209473,-0.0050815716385841,8.45386791229248,0.2921532988548279,29.51529312133789,0.3353777751326561,35.68564224243164,L,False,True,3,L,100,,0.228,LeftResponse,correct,True,22.0
118,123,1517.2486666666666,7607,1517.187,1517.194,1517.199,0.3963717164861607,38.223563534720654,-0.3937244415283203,-36.60123062133789,-0.3531691133975982,-34.90121078491211,0.0457340329885482,11.017745971679688,0.1295729875564575,12.449101448059082,L,False,True,3,R,50,,0.302,RightResponse,correct,True,18.0
119,124,1520.7296666666666,7610,1520.614,1520.62,1520.626,0.5060709139334775,44.804900925825685,-0.4623370170593261,-41.89222717285156,-0.3658715113997459,-36.8643913269043,-0.2057966291904449,-15.890892028808594,-0.1778473258018493,-13.11920928955078,L,False,True,3,L,100,,0.298,LeftResponse,correct,True,21.0
120,125,1524.7966666666666,7618,1524.785,1524.792,1524.798,0.5793620594588915,59.30644483048288,-0.576659232378006,-59.30590057373047,-0.5792746059596539,-51.7139892578125,0.0558974565938115,-0.2540778815746307,0.1067063510417938,15.105181694030762,L,False,True,3,L,0,,0.286,RightResponse,incorrect,True,14.0
121,126,1530.8796666666665,2443,1530.822,1530.827,1530.831,0.3176338505834075,37.963765190686296,0.3175932019948959,37.556861877441406,0.4344729483127594,44.64835739135742,-0.0050814449787139,-5.54342794418335,0.1168713569641113,11.225196838378906,L,False,True,3,R,50,,0.244,RightResponse,correct,True,17.0
122,127,1534.1856666666665,10149,1533.773,1533.776,1533.781,0.3492979096259377,41.01232618944849,0.1397299170494079,17.044723510742188,0.1956409104168415,22.151084899902344,-0.320132128894329,-37.30265808105469,-0.3861761093139648,-42.49810028076172,L,False,True,3,R,400,,0.201,LeftResponse,incorrect,True,8.0
123,128,1537.3576666666665,7649,1537.147,1537.154,1537.158,0.5884566052216872,65.00519659011172,-0.4395236670970917,-45.49953079223633,-0.4649549466557801,-44.809043884277344,-0.3912801072001457,-46.42702102661133,-0.3455276787281036,-37.76336669921875,L,False,True,3,R,200,,0.357,RightResponse,correct,True,17.0
124,129,1540.5216666666665,2459,1540.414,1540.418,1540.422,0.2839483428774156,31.25851812492442,0.1956363171339035,20.64922142028809,0.2693213298916816,30.766326904296875,-0.2057986706495285,-23.46709632873535,-0.2083377093076706,-23.39756965637207,L,False,True,3,R,100,,0.334,LeftResponse,incorrect,True,20.0
125,130,1544.8306666666665,7662,1544.816,1544.822,1544.828,0.5183758492369626,52.1855367425427,-0.5182762145996094,-52.17424392700195,-0.3582407087087631,-40.512733459472656,-0.0101629942655563,1.085594654083252,0.0101616382598876,5.958476543426514,L,False,True,3,L,0,,0.393,LeftResponse,correct,True,17.0
126,131,1549.3396666666665,2468,1549.328,1549.333,1549.339,0.3601054152317123,33.42731959735198,0.2972589135169983,29.10224914550781,0.343001265078783,32.70638656616211,0.2032561153173446,16.445205688476562,0.076211929321289,10.531283378601074,L,False,True,3,R,0,,0.391,RightResponse,correct,True,16.0
127,132,1552.6046666666666,7671,1552.392,1552.396,1552.4,0.2242894007737816,23.600169936961915,-0.2210279405117035,-22.703340530395508,-0.2489824891090393,-29.194150924682617,0.0381101667881011,6.444094181060791,0.0381094217300415,7.344730854034424,L,False,True,3,R,200,,0.309,RightResponse,correct,True,16.0
128,133,1556.3096666666665,7678,1556.246,1556.254,1556.259,0.4769671995289066,44.27002309701021,-0.4648798108100891,-42.03025436401367,-0.3861884400248527,-39.31149291992188,0.1066980361938476,13.902973175048828,0.0685909390449523,3.1408531665802,L,False,True,3,L,50,,0.286,LeftResponse,correct,True,16.0
129,134,1559.2826666666665,7681,1559.267,1559.275,1559.282,0.5983503813492546,55.2557674510735,-0.5868264138698578,-53.7866439819336,-0.5056074857711792,-59.38420104980469,-0.116867184638977,-12.656886100769045,-0.1905517280101776,-17.299928665161133,L,False,True,3,R,0,,0.261,LeftResponse,incorrect,True,15.0
130,135,1565.3356666666666,2491,1565.126,1565.131,1565.136,0.3519252003256509,37.68814730996717,0.3429985120892524,36.93302917480469,0.4090632013976574,34.924041748046875,0.0787614583969116,7.50651741027832,0.1880065500736236,19.83989524841309,L,False,True,3,R,200,,0.283,RightResponse,correct,True,15.0
131,136,1568.9206666666666,2495,1568.509,1568.516,1568.522,0.4675247962250129,43.75228076433652,0.4674971830099821,43.724082946777344,0.5005287975072861,46.7500114440918,0.0050812363624572,1.5705548524856567,-0.0406507551670074,-3.0257129669189453,L,False,True,3,L,400,,0.267,LeftResponse,correct,True,11.0
132,137,1572.0056666666665,7697,1571.792,1571.797,1571.802,0.2881999272085022,28.79320094323364,-0.2845488488674164,-27.96987533569336,-0.2312087714672088,-27.278514862060547,0.0457291007041931,6.836263179779053,0.0635086894035339,8.12901496887207,L,False,True,3,L,200,,0.279,RightResponse,incorrect,True,14.0
133,138,1575.0116666666665,7700,1574.803,1574.809,1574.814,0.2644214192889415,27.70204831089577,-0.2642261087894439,-27.53124237060547,-0.4497031047940254,-42.08292770385742,0.0101612210273742,3.071510076522827,-0.1422683000564575,-23.11861038208008,L,False,True,3,L,200,,0.254,LeftResponse,correct,True,17.0
134,139,1579.4956666666665,2505,1579.087,1579.093,1579.097,0.3500803928476161,39.70844560354103,0.3252191580832004,35.66328811645508,0.393821120262146,42.893009185791016,-0.1295715272426605,-17.46111488342285,-0.1270155310630798,-16.95102882385254,L,False,True,3,R,400,,0.345,RightResponse,correct,True,10.0
135,140,1583.1466666666665,7713,1583.085,1583.09,1583.096,0.3517490871280012,37.84568795741723,-0.3480605781078338,-37.69312286376953,-0.4243000596761703,-42.24513626098633,-0.0508060455322265,-3.3947880268096924,-0.0762133598327636,-5.889207363128662,L,False,True,3,R,50,,0.352,LeftResponse,incorrect,True,15.0
136,141,1586.8476666666666,7725,1586.737,1586.744,1586.749,0.6159704965585149,63.65758753454319,-0.6147903203964233,-62.91046524047852,-0.5792569369077682,-59.74998092651367,-0.0381118692457675,-9.724289894104004,-0.010163128376007,-1.8940374851226809,L,False,True,3,L,100,,0.284,LeftResponse,correct,True,23.0
137,142,1590.5036666666665,2534,1590.091,1590.097,1590.104,0.6248722849580152,65.44063380607399,0.6046899892389774,63.817970275878906,0.4802027530968189,50.46876907348633,0.1575290113687515,14.482514381408691,-0.0076222717761993,2.656254291534424,L,False,True,3,R,400,,0.328,RightResponse,correct,True,9.0
138,143,1595.9786666666666,7742,1595.767,1595.772,1595.778,0.3885538362205122,42.1299521114731,-0.3861456513404846,-41.96345520019531,-0.419221144169569,-44.1392707824707,0.0431928187608718,3.741830110549927,0.0431928038597106,8.384477615356445,L,False,True,3,L,200,,0.291,LeftResponse,correct,True,16.0
139,144,1599.7086666666667,2551,1599.697,1599.702,1599.707,0.372867949228399,40.413166759607165,0.3633185625076294,39.72719192504883,0.3785749413073063,39.612979888916016,0.0838458687067031,7.414463520050049,0.1219562888145446,10.394013404846191,L,False,True,3,R,0,,0.338,LeftResponse,incorrect,True,18.0
140,145,1603.4386666666664,7760,1603.426,1603.434,1603.439,0.609305138521554,52.58901046797367,-0.4928581118583679,-46.44412612915039,-0.3658583015203476,-42.19808578491211,0.3582507967948913,24.66874885559082,0.4141422233078629,29.010948181152344,L,False,True,3,R,0,,0.25,LeftResponse,incorrect,True,21.0
141,146,1610.8286666666665,2578,1610.715,1610.723,1610.728,0.4411951984892329,42.500809161908926,0.4395461194217205,42.47667694091797,0.3201364381238818,31.29773330688477,0.0381105244159698,1.4320249557495115,0.0254078432917594,1.8478350639343264,L,False,True,3,R,100,,0.365,RightResponse,correct,True,22.0
142,147,1614.3806666666665,7793,1614.265,1614.271,1614.278,0.471329339453607,48.95340844912264,-0.4395137131214142,-44.69054412841797,-0.4191716015338897,-43.30327606201172,0.170232318341732,19.97977638244629,0.1473651230335235,12.126460075378418,L,False,True,3,R,100,,0.366,RightResponse,correct,True,21.0
143,148,1617.8156666666666,7802,1617.752,1617.756,1617.761,0.25023303409099,24.54539761959205,-0.2413558959960937,-24.343555450439453,-0.2515103816986084,-27.622446060180664,0.0660598427057266,3.1413137912750244,0.1321189403533935,12.218663215637209,L,False,True,3,L,50,,0.386,RightResponse,incorrect,True,18.0
144,149,1620.9756666666665,7814,1620.763,1620.771,1620.777,0.6789268820228749,67.75877198861549,-0.6275169551372528,-62.52031326293945,-0.5487362742424011,-56.60591125488281,0.2591605335474014,26.123966217041016,0.3302949965000152,35.062068939208984,L,False,True,3,R,200,,0.233,RightResponse,correct,True,15.0
145,150,1624.9016666666666,2610,1624.837,1624.841,1624.846,0.3455770205415287,40.699092801776,0.2032538950443267,22.334814071655277,0.2032578289508819,20.78770637512207,0.2794840447604656,34.02311325073242,0.2998118139803409,29.103418350219727,L,False,True,3,L,50,,0.349,LeftResponse,correct,True,21.0
146,151,1629.3106666666665,7826,1628.894,1628.902,1628.909,0.5567586339047598,53.21543216323541,-0.5563874691724777,-52.08183670043945,-0.5259049087762833,-51.34296798706055,0.0203263517469167,10.925406455993652,-0.0533565729856491,-3.5802009105682373,L,False,True,3,L,400,,0.201,RightResponse,incorrect,True,8.0
147,152,1632.3456666666666,7831,1632.232,1632.239,1632.245,0.6625036902579264,68.10359623078104,-0.6097118854522705,-65.61356353759766,-0.6452049612998962,-65.48994445800781,0.2591573968529701,18.247194290161133,0.2108753323554992,13.650277137756348,L,False,True,3,L,100,,0.347,RightResponse,incorrect,True,20.0
148,153,1635.7346666666665,2627,1635.321,1635.324,1635.328,0.2977363954322128,35.59685008511833,0.1371987760066986,16.12200164794922,0.2057924270629882,25.013805389404297,-0.2642412856221199,-31.73667907714844,-0.142282985150814,-16.399486541748047,L,False,True,3,L,400,,0.383,RightResponse,incorrect,True,11.0
149,154,1638.7156666666665,7841,1638.703,1638.708,1638.714,0.3514260798832327,38.18756013420769,-0.3379033505916595,-37.901458740234375,-0.363270103931427,-41.59260177612305,-0.0965485125780105,-4.665744781494141,-0.0533543825149536,-9.978012084960938,L,False,True,3,L,0,,0.253,RightResponse,incorrect,True,24.0
150,156,1644.9026666666666,2643,1644.491,1644.496,1644.501,0.3572306306219813,38.89136156853153,0.3557004183530807,38.80368423461914,0.4243071265518665,42.45390701293945,-0.0330293178558349,-2.609998941421509,-0.01778544485569,0.6929401755332947,L,False,True,3,L,400,,0.257,LeftResponse,correct,True,14.0
151,157,1649.5316666666665,10265,1649.315,1649.32,1649.326,0.6454815795905677,66.62658207900549,-0.2515062689781189,-25.289201736450195,-0.2083297073841095,-19.72446060180664,-0.594467043876648,-61.64055252075195,-0.5131939053535461,-44.11431121826172,L,False,True,3,L,200,,0.291,LeftResponse,correct,True,14.0
152,158,1653.5076666666666,2657,1653.396,1653.4,1653.406,0.3001974307880235,32.80032459161761,0.2998101375997066,32.7989501953125,0.3607851415872574,37.04855728149414,0.0152439773082733,0.3002655506134033,0.1270297169685363,21.618106842041016,L,False,True,3,R,100,,0.4,LeftResponse,incorrect,True,23.0
153,159,1657.1506666666667,7876,1656.739,1656.745,1656.751,0.4471362894463534,45.05031684913175,-0.4471290707588196,-44.735984802246094,-0.4217352271080017,-48.155521392822266,-0.0025407522916793,5.31250524520874,-0.0558964014053344,-0.1616806983947754,L,False,True,3,R,400,,0.352,LeftResponse,incorrect,True,13.0
154,160,2096.625666666667,7985,2096.609,2096.618,2096.624,0.6690408425140285,62.02909804911312,-0.5818238407373428,-54.07076644897461,-0.5513262301683426,-57.904903411865234,-0.3302978463470936,-30.396730422973636,-0.2489905953407287,-29.934059143066406,L,False,True,4,R,0,,0.291,RightResponse,correct,True,30.0
155,161,2101.242666666667,7998,2100.826,2100.832,2100.838,0.4782078327951903,43.80499036380275,-0.4497152790427208,-40.67538833618164,-0.3531663930043578,-33.14553451538086,-0.162600427865982,-16.260072708129883,-0.0177855640649795,-5.081589698791504,L,False,True,4,R,400,,0.332,LeftResponse,incorrect,True,16.0
156,162,2105.201666666667,8008,2104.977,2104.982,2104.987,0.305705641271988,33.32594304532176,-0.2845311760902405,-32.21760559082031,-0.2235876992344856,-23.097881317138672,-0.1117942258715629,-8.52316665649414,-0.0050815902650356,6.559868335723877,L,False,True,4,L,200,,0.389,LeftResponse,correct,True,13.0
157,163,2108.0576666666666,10346,2108.048,2108.052,2108.06,0.50574382480985,47.20771739829745,0.236287921667099,27.50924301147461,0.3099758848547935,36.63350677490234,-0.4471519142389297,-38.36417770385742,-0.4573338567279279,-40.74467849731445,L,False,True,4,L,0,,0.291,RightResponse,incorrect,True,29.0
158,164,2111.679666666667,2815,2111.611,2111.618,2111.623,0.319034043829026,23.74450373992593,0.3048697412014007,22.126392364501957,0.190559234470129,19.35619354248047,0.0940061807632446,8.615347862243652,0.2210396826267242,6.490370273590088,L,False,True,4,R,50,,0.352,LeftResponse,incorrect,True,20.0
159,165,2117.317666666667,8031,2117.305,2117.311,2117.318,0.6467179619987339,66.81663238204399,-0.6351160407066345,-64.6903305053711,-0.4624220430850982,-45.1797981262207,-0.1219497323036193,-16.721946716308594,0.002540647983551,-4.365291118621826,L,False,True,4,R,0,,0.279,RightResponse,correct,True,32.0
160,166,2120.3976666666667,8035,2120.384,2120.388,2120.393,0.2283972805718945,25.229262070391407,-0.2032619342207908,-19.818056106567383,-0.2261288240551948,-26.26237297058105,0.1041628718376159,15.612825393676758,-0.0355693101882934,-4.480820655822754,L,False,True,4,L,0,,0.387,LeftResponse,correct,True,31.0
161,167,2123.6246666666666,8037,2123.412,2123.418,2123.423,0.4509247572745439,44.85044863048277,-0.4420695304870605,-43.81417846679688,-0.3557098358869552,-39.52073669433594,-0.0889250636100769,-9.585432052612305,0.0228665769100189,-1.5937299728393557,L,False,True,4,R,200,,0.234,RightResponse,correct,True,12.0
162,168,2127.829666666667,8047,2127.617,2127.625,2127.631,0.5743322186692258,48.67725066330328,-0.5589291155338287,-47.99344253540039,-0.5132185146212578,-51.55278396606445,0.1321201771497726,8.130449295043945,0.1219504475593566,15.705673217773438,L,False,True,4,L,200,,0.24,RightResponse,incorrect,True,11.0
163,169,2131.210666666667,2842,2131.098,2131.105,2131.111,0.5932246403438207,56.129506955488,0.5919991433620453,56.08196258544922,0.5284612476825714,49.56629943847656,0.0381115227937698,-2.309767007827759,0.0127039104700088,-3.834275007247925,L,False,True,4,L,100,,0.347,LeftResponse,correct,True,26.0
164,170,2134.020666666667,8059,2134.008,2134.015,2134.021,0.5308368841628596,55.10914331681988,-0.5233353078365326,-53.88047409057617,-0.4776276350021362,-49.67972183227539,-0.0889266729354858,-11.572043418884276,-0.279482252895832,-13.18868923187256,L,False,True,4,L,0,,0.237,LeftResponse,correct,True,30.0
165,171,2137.476666666667,10366,2137.067,2137.071,2137.078,0.4796594091485514,51.81405860005728,0.1524431258440017,19.63282966613769,0.2185040563344955,29.14930534362793,-0.4547903276979923,-47.95048141479492,-0.3607837185263634,-36.58667755126953,L,False,True,4,R,400,,0.374,RightResponse,correct,True,19.0
166,172,2140.715666666667,8072,2140.505,2140.511,2140.515,0.5214296337487686,56.00969853340387,-0.3836292028427124,-41.08794784545898,-0.2540720105171203,-31.96683692932129,-0.353153645992279,-38.06398391723633,-0.2871089652180671,-36.63354110717773,L,False,True,4,R,200,,0.237,LeftResponse,incorrect,True,14.0
167,173,2144.9126666666666,2870,2144.901,2144.904,2144.908,0.21081126354563,22.287517545247088,0.2057908475399017,21.456729888916016,0.2744020633399486,29.72684669494629,-0.045733094215393,-6.02844762802124,0.1422783136367797,13.742751121520996,L,False,True,4,R,0,,0.288,RightResponse,correct,True,29.0
168,174,2149.1336666666666,2876,2148.721,2148.729,2148.735,0.7343874196634615,72.84421767640616,0.7342775464057922,72.80460357666016,0.6656802594661713,64.00447082519531,-0.0127030313014984,2.4020297527313232,-0.0457307696342468,0.8083966970443726,L,False,True,4,L,400,,0.299,LeftResponse,correct,True,18.0
169,175,2152.2316666666666,2885,2152.169,2152.177,2152.182,0.4947992548314288,47.3481683044136,0.4522591531276703,43.26264953613281,0.4979785718023777,44.50891876220703,-0.2007186114788055,-19.240379333496094,0.1321178525686264,11.36397647857666,L,False,True,4,L,50,,0.393,RightResponse,incorrect,True,23.0
170,176,2156.8616666666667,8101,2156.449,2156.455,2156.462,0.6875926894071357,69.82366434961051,-0.6732425689697266,-66.86249542236328,-0.4674749076366424,-56.65573501586914,-0.1397431567311287,-20.1184196472168,-0.2286690324544906,-27.509679794311523,L,False,True,4,R,400,,0.301,LeftResponse,incorrect,True,17.0
171,177,2159.8506666666667,8107,2159.64,2159.647,2159.651,0.5033513273046988,45.43382780112408,-0.426836758852005,-40.09663009643555,-0.3328246176242828,-33.420833587646484,-0.2667825706303119,-21.36569595336914,-0.3404627102427184,-31.73650360107422,L,False,True,4,L,200,,0.315,RightResponse,incorrect,True,17.0
172,178,2163.3856666666666,2901,2163.322,2163.329,2163.334,0.6079279788288354,58.58844517157688,0.5462653338909149,55.45830154418945,0.4954516291618347,53.448822021484375,0.2667782083153724,18.893985748291016,0.2642406285740435,23.860261917114254,L,False,True,4,L,50,,0.266,LeftResponse,correct,True,26.0
173,179,2167.244666666667,2906,2167.183,2167.188,2167.193,0.4394891683222234,44.20450753819162,0.416680995374918,44.07033157348633,0.4344708397984504,47.74324798583984,0.1397414654493332,3.441563844680786,0.091467797756195,6.55981969833374,L,False,True,4,R,50,,0.295,RightResponse,correct,True,25.0
174,180,2171.195666666667,2915,2171.086,2171.093,2171.097,0.4412261143748012,37.88259176845742,0.3328426331281662,31.967748641967773,0.3709492422640323,37.949745178222656,0.2896485207602381,20.32618522644043,0.2083411067724228,23.259387969970703,L,False,True,4,L,100,,0.368,LeftResponse,correct,True,25.0
175,181,2175.050666666667,2928,2174.942,2174.945,2174.949,0.2767610817498335,31.79662775325961,0.1905528753995895,23.14349937438965,0.2515382841229439,29.588672637939453,0.2007144689559936,21.803760528564453,0.1448233425617218,16.653518676757812,L,False,True,4,R,100,,0.247,RightResponse,correct,True,24.0
176,182,2178.4646666666667,8148,2178.403,2178.41,2178.415,0.5076531731562118,48.67398672952125,-0.4319011270999908,-42.08113861083984,-0.4674789756536484,-48.7337646484375,0.2667829841375351,24.46088218688965,0.1651515588164329,18.316802978515625,L,False,True,4,L,50,,0.339,LeftResponse,correct,True,24.0
177,183,2182.2366666666667,2943,2182.028,2182.033,2182.039,0.5695198265985854,64.84588305624806,0.5640469565987587,63.2185173034668,0.6250291466712952,59.45423126220703,0.0787646090611815,14.43632984161377,0.2261303588747978,15.7298002243042,L,False,True,4,R,200,,0.356,RightResponse,correct,True,20.0
178,184,2185.7966666666666,8163,2185.735,2185.741,2185.747,0.5040368749002547,47.33023153836975,-0.4725653827190399,-45.91695022583008,-0.4700229167938232,-47.62611770629883,0.1753143756650388,11.479743003845217,0.0330298244953155,2.3559682369232178,L,False,True,4,R,50,,0.215,RightResponse,correct,True,23.0
179,185,2189.322666666667,2963,2188.911,2188.918,2188.922,0.4456148796438095,44.74099279049214,0.4420951306819916,44.18654251098633,0.4217700064182281,43.90938949584961,-0.0558973737061023,-7.021815776824951,0.0381118766963481,11.225686073303224,L,False,True,4,L,400,,0.327,LeftResponse,correct,True,20.0
180,187,2195.313666666667,8184,2195.302,2195.309,2195.315,0.518911102732774,48.42580357445991,-0.5055781006813049,-45.29174423217773,-0.5563933104276657,-55.7552490234375,0.1168739348649978,17.138154983520508,0.2185062803328037,14.089719772338867,L,False,True,4,R,0,,0.381,LeftResponse,incorrect,True,28.0
181,188,2199.9146666666666,8194,2199.852,2199.86,2199.865,0.7943580573599126,74.52899990806814,-0.5462214052677155,-55.79920196533203,-0.5004984438419342,-47.69324493408203,0.5767554938793182,49.40668869018555,0.3963624089956283,34.71642303466797,L,False,True,4,L,50,,0.351,RightResponse,incorrect,True,22.0
182,189,2203.074666666667,3005,2202.964,2202.972,2202.978,0.6203884013496996,58.44620113684726,0.607242152094841,56.7052116394043,0.6733027994632721,66.79927062988281,0.1270383298397064,14.15900421142578,0.0965499281883239,12.380548477172852,L,False,True,4,R,100,,0.237,RightResponse,correct,True,22.0
183,190,2206.5716666666667,3012,2206.159,2206.165,2206.169,0.3483147034225055,38.09324481696371,0.3480829671025276,37.27984619140625,0.4039808884263038,41.89962005615234,0.0127035677433013,7.829966068267822,-0.0025407671928405,6.836989879608154,L,False,True,4,R,400,,0.364,RightResponse,correct,True,19.0
184,191,2210.1276666666668,8238,2210.015,2210.022,2210.028,0.5552046652566184,54.186202060922895,-0.5386280007660389,-53.40074920654297,-0.5869044261053205,-62.70966720581055,-0.134655475616455,-9.192631721496582,-0.0736816525459289,1.6630371809005735,L,False,True,4,L,100,,0.35,LeftResponse,correct,True,21.0
185,192,2214.5406666666668,3036,2214.325,2214.33,2214.337,0.3776297319701631,34.10388085544685,0.3582509160041809,30.766660690307617,0.350627988576889,31.13610076904297,0.1194173172116279,14.713506698608398,-0.0152441263198852,-3.7186412811279297,L,False,True,4,L,200,,0.247,RightResponse,incorrect,True,19.0
186,193,2218.5086666666666,8254,2218.447,2218.453,2218.459,0.5774081555099847,55.75624286601715,-0.5589513219892979,-53.63174819946289,-0.5131878554821014,-59.70273971557617,0.1448226422071457,15.244481086730955,0.2540771625936031,28.54918670654297,L,False,True,4,R,50,,0.207,LeftResponse,incorrect,True,25.0
187,194,2222.5466666666666,3056,2222.534,2222.54,2222.545,0.4113363252054122,48.19368971039255,0.353164441883564,38.27309799194336,0.2515260577201843,29.564271926879883,0.2108849198557436,29.28825187683105,0.2083448246121406,19.517906188964844,L,False,True,4,L,0,,0.29,LeftResponse,correct,True,31.0
188,195,2225.623666666667,8267,2225.51,2225.517,2225.522,0.4915825335452768,50.05926147807797,-0.4902940094470978,-49.97593688964844,-0.5157036781311035,-52.40153121948242,-0.0355692505836486,-2.8871078491210938,0.0304891169071197,3.3029863834381104,L,False,True,4,R,100,,0.228,LeftResponse,incorrect,True,20.0
189,196,2229.503666666667,8277,2229.291,2229.298,2229.305,0.6295848298808647,60.93112917207269,-0.6275307536125183,-60.58197021484375,-0.4800979495048523,-44.523250579833984,0.050815463066101,6.5136308670043945,0.0330299437046051,-5.035316467285156,L,False,True,4,R,200,,0.354,RightResponse,correct,True,22.0
190,197,2232.4306666666666,3076,2232.32,2232.325,2232.33,0.4188258286825154,46.04780918025767,0.4014421477913856,45.29510116577149,0.3404397964477539,30.002328872680664,-0.119412213563919,-8.29183578491211,-0.185475081205368,-12.934741020202637,L,False,True,4,L,100,,0.338,LeftResponse,correct,True,23.0
191,198,2235.5116666666668,3079,2235.099,2235.106,2235.112,0.5697454626139942,59.25288733209535,0.5437192022800446,56.08145523071289,0.429362028837204,40.28006362915039,-0.1702331379055977,-19.125246047973636,-0.1295804753899574,-10.509649276733398,L,False,True,4,L,400,,0.237,LeftResponse,correct,True,18.0
192,199,2238.987666666667,8288,2238.573,2238.58,2238.587,0.5505154876935674,53.0961987117829,-0.5462249219417572,-52.936790466308594,-0.5512389540672302,-55.19393539428711,-0.0685976445674896,4.111268997192383,-0.0762237552553415,-12.218904495239258,L,False,True,4,L,400,,0.287,RightResponse,incorrect,True,17.0
193,200,2520.503666666667,8399,2520.389,2520.397,2520.403,0.5256914911976025,46.10166550837906,-0.5208553895354271,-45.68729782104492,-0.5106803402304649,-55.064056396484375,-0.0711421612650156,6.167201995849609,-0.1346594542264938,-2.055657863616944,L,False,True,5,L,100,,0.238,LeftResponse,correct,True,22.0
194,201,2524.579666666667,8406,2524.516,2524.52,2524.527,0.305413869234363,25.42083399008053,-0.2870988845825195,-25.19923591613769,-0.2972652167081833,-27.694122314453125,-0.1041722707450389,-3.3492252826690674,0.0813035517930984,4.68880558013916,L,False,True,5,R,50,,0.258,RightResponse,correct,True,28.0
195,202,2528.005666666667,3212,2527.794,2527.798,2527.803,0.3329564507120683,35.93644248285141,0.2998095341026783,33.607295989990234,0.264241985976696,29.796520233154297,-0.1448248643428087,-12.72704029083252,-0.2261164486408233,-24.18218231201172,L,False,True,5,L,200,,0.263,LeftResponse,correct,True,21.0
196,203,2532.0486666666666,8412,2531.836,2531.84,2531.843,0.2174859667744473,25.230579184753505,-0.1727589666843414,-20.209060668945312,-0.1626106984913349,-20.187746047973636,-0.1321154236793518,-15.10549545288086,-0.0152444839477539,-3.903509616851807,L,False,True,5,R,200,,0.309,RightResponse,correct,True,20.0
197,204,2535.458666666667,8418,2535.037,2535.042,2535.046,0.2802420317779616,29.79662838121663,-0.2591291069984436,-27.899023056030277,-0.2032595574855804,-20.9265079498291,0.1067131776362657,10.46343994140625,0.1956216096878051,20.87854385375977,L,False,True,5,L,400,,0.323,LeftResponse,correct,True,20.0
198,205,2539.188666666667,3229,2538.778,2538.779,2538.783,0.1205165161379095,18.37677583000104,0.0990864038467407,14.620408058166504,0.1676914170384407,19.61020851135254,0.0686011314392089,11.13326358795166,0.0406492352485656,3.510629415512085,L,False,True,5,R,400,,0.266,RightResponse,correct,True,19.0
199,206,2542.2026666666666,10572,2541.98,2541.985,2541.991,0.4436106341541208,46.62721132327091,-0.0762200653553009,-1.2010493278503418,0.0330299884080886,9.192986488342283,-0.4370136111974716,-46.61174011230469,-0.3760131299495697,-37.7395133972168,L,False,True,5,R,200,,0.242,LeftResponse,incorrect,True,19.0
200,207,2545.829666666667,3245,2545.418,2545.424,2545.43,0.4759456339588832,49.208793611460926,0.4751243144273758,48.85223007202149,0.475125789642334,42.800662994384766,0.0279487445950508,5.913119792938232,-0.2032538950443267,-24.967758178710938,L,False,True,5,R,400,,0.307,LeftResponse,incorrect,True,18.0
201,208,2549.5806666666667,8448,2549.368,2549.373,2549.38,0.4932698216325155,51.92798458877407,-0.447110652923584,-47.020774841308594,-0.3912534117698669,-41.08873748779297,0.2083439007401466,22.035478591918945,0.1803951673209667,9.23906135559082,L,False,True,5,L,200,,0.393,LeftResponse,correct,True,22.0
202,209,2554.0316666666668,8454,2553.621,2553.628,2553.634,0.627482188679539,63.456689041307,-0.6274616122245789,-63.32335662841797,-0.5513434708118439,-52.36260223388672,-0.0050815641880035,4.111433982849121,0.0914661288261413,13.48894214630127,L,False,True,5,L,400,,0.395,LeftResponse,correct,True,21.0
203,210,2558.4526666666666,8466,2558.341,2558.348,2558.354,0.6738617901719965,65.86663013326438,-0.6706160306930542,-65.03025817871094,-0.5436951220035553,-58.4813117980957,0.0660594552755355,10.463196754455566,-0.0025407820940017,-0.8084287047386169,L,False,True,5,L,100,,0.399,RightResponse,incorrect,True,21.0
204,211,2562.1626666666666,3276,2561.749,2561.755,2561.759,0.2750864853426503,26.762498436432026,0.2566194757819175,22.9364070892334,0.3226723670959472,33.65300369262695,-0.099090963602066,-13.789581298828123,-0.0838357210159301,-9.561437606811523,L,False,True,5,R,400,,0.348,RightResponse,correct,True,20.0
205,212,2565.900666666667,3286,2565.79,2565.797,2565.803,0.5949948974228874,65.9120222695152,0.5818238407373428,64.28038024902344,0.5538809224963188,51.90065002441406,0.1244987803511321,14.574889183044434,0.127030074596405,12.14875030517578,L,False,True,5,R,100,,0.265,LeftResponse,incorrect,True,24.0
206,213,2569.6896666666667,3288,2569.678,2569.685,2569.69,0.5915286017704906,51.84436973920124,0.541170384734869,48.296966552734375,0.5462653338909149,53.56410217285156,0.238831952214241,18.847856521606445,0.0381110310554504,14.551408767700195,L,False,True,5,L,0,,0.335,LeftResponse,correct,True,30.0
207,214,2573.6246666666666,8491,2573.559,2573.565,2573.57,0.4694200957833578,52.355918754167945,-0.4344223737716675,-44.96662902832031,-0.3150451183319092,-31.804821014404297,-0.1778550744056701,-26.816869735717773,-0.0787583887577056,-5.589277267456055,L,False,True,5,L,50,,0.336,LeftResponse,correct,True,27.0
208,215,2577.9996666666666,3298,2577.786,2577.792,2577.798,0.5094362435397145,52.54863057207402,0.4852889329195022,51.43932342529297,0.4878278225660324,46.91187286376953,0.1549836695194244,10.74032497406006,0.0685968399047851,7.275378227233887,L,False,True,5,R,200,,0.261,RightResponse,correct,True,21.0
209,216,2581.905666666667,3305,2581.691,2581.699,2581.704,0.4770764647178394,44.73834337912565,0.4395464733242988,42.38444900512695,0.4014439433813095,39.63630294799805,0.1854746639728546,14.320539474487305,0.1829245090484619,14.643179893493652,L,False,True,5,R,200,,0.295,LeftResponse,incorrect,True,20.0
210,217,2585.880666666667,8510,2585.815,2585.823,2585.829,0.622390896849642,59.90878354934032,-0.6148568987846375,-57.813270568847656,-0.4954169243574142,-48.871856689453125,0.0965475142002105,15.706307411193848,0.0025407373905181,0.4850432872772217,L,False,True,5,L,50,,0.35,RightResponse,incorrect,True,26.0
211,218,2589.020666666667,3318,2588.81,2588.816,2588.822,0.5737065852701787,58.46201408399428,0.5716719031333923,58.460845947265625,0.566582728177309,56.86623764038086,-0.0482750572264194,-0.36956986784935,-0.0101629793643951,2.817922353744507,L,False,True,5,L,200,,0.291,LeftResponse,correct,True,23.0
212,219,2591.947666666667,8527,2591.932,2591.938,2591.944,0.4861924873868141,52.8004702493978,-0.4852355420589447,-52.74992370605469,-0.2947176247835159,-33.21335220336914,-0.0304894000291824,2.3098068237304688,-0.0050813257694244,-1.2472320795059204,L,False,True,5,L,0,,0.209,LeftResponse,correct,True,29.0
213,220,2594.8616666666667,8532,2594.848,2594.854,2594.86,0.319965583934615,33.06394890973001,-0.299799844622612,-30.07235336303711,-0.3912568390369415,-42.127777099609375,0.1117945797741413,13.74329948425293,0.01270192861557,0.9468740820884703,L,False,True,5,L,0,,0.372,RightResponse,incorrect,True,28.0
214,221,2597.7546666666667,8535,2597.745,2597.751,2597.757,0.5949568492662552,66.68525954076998,-0.5817849040031433,-66.12334442138672,-0.564012348651886,-58.01818084716797,0.1244989074766635,8.638701438903809,-0.0127027034759521,-1.8707565069198608,L,False,True,5,L,0,,0.354,LeftResponse,correct,True,31.0
215,222,2600.9356666666667,3335,2600.823,2600.83,2600.835,0.3847374713373235,34.74385607113538,0.3785720039159059,34.623680114746094,0.3684131801128387,36.28705596923828,0.0686014555394649,2.8872668743133545,0.1422724723815918,16.051801681518555,L,False,True,5,R,100,,0.212,LeftResponse,incorrect,True,27.0
216,223,2604.6536666666666,8543,2604.544,2604.549,2604.554,0.3944795445006007,40.57881688187823,-0.3734636306762695,-38.893775939941406,-0.3328204154968261,-37.04696273803711,0.1270394725725054,11.57214641571045,0.0279474854469299,1.639888048171997,L,False,True,5,R,100,,0.294,RightResponse,correct,True,30.0
217,224,2608.742666666667,3350,2608.728,2608.733,2608.738,0.4101947491995281,47.41740055333508,0.3455448504537344,41.13742446899414,0.2998055964708328,29.65723419189453,0.2210395634174347,23.58224296569824,0.2108713090419769,18.80051040649414,L,False,True,5,R,0,,0.314,RightResponse,correct,True,30.0
218,225,2611.7606666666666,8553,2611.698,2611.706,2611.711,0.540535601425129,45.8107585583155,-0.5207729339599609,-45.14856719970703,-0.4674654006958008,-50.51089096069336,-0.1448250242974609,-7.760958671569824,-0.0254061222076416,-6.952149391174316,L,False,True,5,R,50,,0.285,LeftResponse,incorrect,True,29.0
219,226,2615.0376666666666,3363,2614.627,2614.633,2614.638,0.4156434175717107,41.128793744378825,0.4090602220967412,40.90620803833008,0.4878185056149959,46.749542236328125,-0.0736830052919685,-4.27315092086792,0.0203245282173156,-3.4182424545288086,L,False,True,5,L,400,,0.205,RightResponse,incorrect,True,19.0
220,227,2617.556666666667,8567,2617.442,2617.446,2617.452,0.3831645358469515,38.0647242796191,-0.3760131299495697,-38.06335067749024,-0.3404655158519745,-32.268028259277344,-0.073683021357283,0.3233723640441894,-0.0431893467903137,-8.984307289123535,L,False,True,5,L,100,,0.216,LeftResponse,correct,True,29.0
221,228,2621.219666666667,3373,2621.21,2621.217,2621.222,0.3895267248228208,37.96556984502773,0.3861978948116302,37.71906280517578,0.5284815281629562,50.26126480102539,-0.0508158970624208,-4.319351196289063,-0.1905398666858673,-15.38198947906494,L,False,True,5,R,0,,0.256,RightResponse,correct,True,29.0
222,229,2625.5956666666666,3383,2625.481,2625.486,2625.491,0.2990983215191282,31.97126478713357,0.2617003219202161,28.96489715576172,0.2642418518662452,26.90925407409668,0.1448197066783905,13.53501033782959,0.0711356401443481,4.711599826812744,L,False,True,5,R,100,,0.361,RightResponse,correct,True,28.0
223,231,2633.239666666667,3398,2633.178,2633.183,2633.189,0.4246747270706645,42.27878633831036,0.4141393825411796,41.73738098144531,0.3633226007223129,40.42055130004883,0.0940063595771789,6.744390487670898,0.07113978266716,8.56911849975586,L,False,True,5,L,50,,0.384,LeftResponse,correct,True,32.0
224,232,2635.933666666667,3404,2635.872,2635.878,2635.883,0.6303382986674892,66.47533091469734,0.5843729227781296,61.04768371582031,0.6097720488905907,56.47380065917969,0.2362935841083526,26.30874252319336,0.2413419485092163,16.55905532836914,L,False,True,5,R,50,,0.203,LeftResponse,incorrect,True,31.0
225,233,2639.472666666667,8605,2639.46,2639.466,2639.472,0.4454820379074818,44.35933263280153,-0.4446044862270355,-44.09080123901367,-0.4065241515636444,-44.04778289794922,-0.0279481112957,4.873565196990967,0.1321121752262115,8.684346199035645,L,False,True,5,R,0,,0.369,LeftResponse,incorrect,True,28.0
226,234,2643.119666666667,8611,2642.699,2642.703,2642.707,0.2765708092053702,27.87861364997241,-0.1727703213691711,-18.755271911621094,-0.1905446946620941,-19.424007415771484,0.2159671932458877,20.626605987548828,0.1803793907165527,16.236446380615234,L,False,True,5,L,400,,0.29,LeftResponse,correct,True,22.0
227,235,2646.882666666667,3416,2646.823,2646.829,2646.832,0.29063929831091,37.73199782716093,0.2693235203623771,28.41065788269043,0.3048946261405945,31.50580406188965,0.1092521995306015,24.83018684387207,0.2769299149513244,25.70684242248535,L,False,True,5,L,50,,0.238,LeftResponse,correct,True,34.0
228,236,2650.742666666667,8618,2650.63,2650.638,2650.644,0.5928156680416293,51.36965663604663,-0.5767218619585037,-51.0201530456543,-0.4344441592693329,-50.51221466064453,0.13719442486763,5.982107162475586,0.2591566070914268,29.172306060791016,L,False,True,5,L,100,,0.324,LeftResponse,correct,True,27.0
229,237,2654.2146666666667,3429,2653.804,2653.81,2653.816,0.705218957244512,69.35506833706192,0.6885453462600708,67.65373229980469,0.5564287006855011,53.4717903137207,0.1524437069892883,15.267547607421877,0.2870898246765136,29.35594749450684,L,False,True,5,R,400,,0.349,RightResponse,correct,True,21.0
230,238,2657.8166666666666,8630,2657.803,2657.81,2657.815,0.4800889664811988,46.29847922411943,-0.46749297529459,-46.1257209777832,-0.3886952102184295,-41.64057540893555,-0.109250783920288,-3.995878219604492,0.0203248262405395,-1.0162311792373655,L,False,True,5,R,0,,0.296,LeftResponse,incorrect,True,31.0
231,239,2661.6426666666666,8637,2661.581,2661.586,2661.592,0.4684738555370652,48.43639595919416,-0.4344359934329986,-46.37690734863281,-0.3785412013530731,-38.40830993652344,0.1753086447715759,13.973793983459473,0.0889278054237365,11.941733360290527,L,False,True,5,R,50,,0.321,RightResponse,correct,True,33.0
