,trialIndex,targetOnsetTime,Unnamed: 0,startTime,peakVelocityTime,stopTime,amplitude,peakVelocity,saccade_vec_left_x,peak_velocity_vec_left_x,saccade_vec_right_x,peak_velocity_vec_right_x,saccade_vec_left_y,peak_velocity_vec_left_y,saccade_vec_right_y,peak_velocity_vec_right_y,whichEye,otherEyeMissingData,isBinocular,blockId,arrowDirection,latency,blankDuration,fixationDurationInSec,response,result,isSaccade,blankDurationInFrameCount
0,4,205.44866666666667,5857,205.434,205.437,205.441,0.2136500526101159,25.628994393259,-0.1930800080299377,-23.55757522583008,-0.1422838307917118,-19.26375770568848,-0.0914683304727077,-10.093859672546388,-0.1041725538671016,-9.978388786315918,L,False,True,0,L,0,,0.226,RightResponse,incorrect,True,4.0
1,6,217.10266666666666,5871,216.888,216.893,216.898,0.4630555804458686,46.91394204349414,-0.3633144944906235,-37.90206527709961,-0.2464561574161052,-27.78697204589844,-0.2870941460132599,-27.64690589904785,-0.1880183778703212,-11.872434616088867,L,False,True,0,L,200,,0.37,NoResponse,incorrect,True,4.0
2,8,230.12966666666668,5889,230.016,230.02,230.025,0.2665688081740434,29.593384980113843,-0.2464344203472137,-27.87687110900879,-0.2184968292713165,-23.25864791870117,-0.1016317172907292,-9.932194709777832,-0.1905586048960685,-19.24068260192871,L,False,True,0,R,100,,0.345,RightResponse,correct,True,4.0
3,9,233.39766666666668,5896,233.285,233.29,233.296,0.3640080283277265,38.820034765690565,-0.3632890582084656,-38.75398254394531,-0.223589614033699,-24.761165618896484,-0.0228671133518219,-2.263611316680908,0.0254079177975654,-10.532706260681152,L,False,True,0,L,100,,0.254,LeftResponse,correct,True,3.0
4,10,241.19966666666667,706,240.99,240.996,241.002,0.4758223220833366,47.68816790663205,0.464842140674591,45.90697860717773,0.5665926337242126,50.00722503662109,0.1016300469636917,12.911648750305176,0.3684062287211418,26.977813720703125,L,False,True,0,L,200,,0.248,LeftResponse,correct,True,7.0
5,11,244.12266666666667,5905,244.11,244.113,244.119,0.1727717191927284,16.68109378182023,-0.1727530360221862,-16.67469596862793,-0.1651515401899814,-20.811403274536133,-0.0025407671928405,0.4619568288326263,0.0660601109266281,13.188937187194824,L,False,True,0,R,0,,0.356,LeftResponse,incorrect,True,7.0
6,12,247.80766666666668,5912,247.693,247.7,247.704,0.5076866107188364,52.3986042542864,-0.4979223608970642,-50.324066162109375,-0.3201335445046425,-35.824424743652344,-0.0990909542888403,-14.598016738891602,-0.1295792534947395,-8.707915306091309,L,False,True,0,L,100,,0.374,RightResponse,incorrect,True,2.0
7,13,253.63566666666668,734,253.576,253.583,253.589,0.5107568053808503,44.822789559988806,0.4977952837944031,44.79192733764648,0.546260342001915,52.6854248046875,0.1143344640731811,1.6630421876907349,0.1778554245829582,17.76243782043457,L,False,True,0,L,50,,0.325,RightResponse,incorrect,True,4.0
8,14,257.2916666666667,744,256.876,256.883,256.889,0.4886687996486058,50.98788373137861,0.4826874434947967,50.87776565551758,0.5081412717700005,56.12663650512695,-0.076223537325859,-3.349216222763061,-0.1727614104747772,-9.700565338134766,L,False,True,0,L,400,,0.364,NoResponse,incorrect,True,4.0
9,15,267.03766666666667,5941,266.827,266.832,266.836,0.2293167609194927,24.939215880723285,-0.228626012802124,-24.71015930175781,-0.3048811852931976,-27.092700958251957,0.0177854746580123,-3.3723161220550537,-0.0025407522916793,1.4320642948150637,L,False,True,0,R,200,,0.346,RightResponse,correct,True,6.0
10,16,270.1646666666667,5947,270.106,270.112,270.117,0.3591243356400388,38.56805736059361,-0.3175682127475738,-34.875038146972656,-0.3658682648092508,-31.482078552246094,-0.1676923334598541,-16.468963623046875,-0.2489971630275249,-23.92959976196289,L,False,True,0,R,50,,0.208,LeftResponse,incorrect,True,7.0
11,18,281.1686666666667,796,280.758,280.762,280.768,0.3084018239178789,34.92389090271218,0.3073534369468689,34.49949264526367,0.2718628984875977,32.40648651123047,0.0254076719284057,5.427998065948486,-0.1422826051712036,-12.080167770385742,L,False,True,0,L,400,,0.205,RightResponse,incorrect,True,7.0
12,19,284.43666666666667,5979,284.423,284.428,284.433,0.3514146299521957,38.32822710435132,-0.3378915786743164,-37.69239807128906,-0.2947307713329792,-28.041034698486328,-0.0965480357408523,-6.952418327331543,-0.1575271189212799,-8.176656723022461,L,False,True,0,L,0,,0.376,NoResponse,incorrect,True,10.0
13,20,289.0746666666667,828,289.065,289.07,289.075,0.3703960157369118,39.02521740871252,0.2972126603126526,32.79267501831055,0.3125165030360222,33.56145095825195,0.2210381031036377,21.1567497253418,0.30741947889328,35.29189682006836,L,False,True,0,R,0,,0.234,NoResponse,incorrect,True,13.0
14,21,293.6546666666667,5995,293.639,293.644,293.649,0.2889684822034218,29.621203842862435,-0.2870746552944183,-29.308006286621094,-0.2540758177638054,-25.61543273925781,-0.033029168844223,-4.296101093292236,-0.1270395368337631,-12.01101303100586,L,False,True,0,L,0,,0.326,RightResponse,incorrect,True,16.0
15,23,301.0566666666667,6027,300.946,300.951,300.955,0.2514090735361723,27.18491609335316,-0.2439025938510894,-26.58451461791992,-0.2413724660873413,-25.96194076538086,-0.0609757900238037,-5.681834697723389,-0.0177854597568511,1.3627803325653076,L,False,True,0,R,100,,0.385,NoResponse,incorrect,True,5.0
16,24,307.98466666666667,6038,307.921,307.927,307.932,0.3353712319516194,36.53142142223423,-0.3277387320995331,-36.19230270385742,-0.2794748544692993,-32.52079772949219,-0.0711420178413391,-4.966082572937012,0.0254079103469848,3.557112455368042,L,False,True,0,R,50,,0.371,RightResponse,correct,True,10.0
17,25,311.0826666666667,6045,310.965,310.97,310.975,0.2486266212851552,26.46209675160368,-0.2464228272438049,-26.39750099182129,-0.1753115206956863,-18.3165283203125,-0.033030092716217,-1.8478381633758545,0.0025407671928405,-3.418501853942871,L,False,True,0,R,100,,0.227,LeftResponse,incorrect,True,8.0
18,26,314.27566666666667,6052,314.062,314.07,314.076,0.639752029783245,60.82479838990677,-0.6173839084804058,-60.191551208496094,-0.4116011643782258,-44.1165771484375,-0.1676895022392273,-8.754042625427246,-0.1067133583128452,-1.917144536972046,L,False,True,0,L,200,,0.306,NoResponse,incorrect,True,5.0
19,27,319.38466666666665,6057,318.976,318.982,318.986,0.3921325411849657,40.75259244369028,-0.3556584119796753,-36.95199203491211,-0.3937980681657791,-39.79534912109375,-0.1651515178382396,-17.184995651245117,-0.2312082201242447,-24.94557380676269,L,False,True,0,R,400,,0.212,RightResponse,correct,True,10.0
20,28,322.83566666666667,6063,322.422,322.427,322.431,0.2932878498600753,29.52411493378169,-0.2845288515090942,-29.145681381225582,-0.162609688937664,-18.108787536621094,-0.0711413770914077,-4.711965560913086,-0.1143325865268707,-10.486247062683104,L,False,True,0,R,400,,0.21,NoResponse,incorrect,True,9.0
21,29,327.64866666666666,6072,327.536,327.542,327.548,0.3892528348017229,40.53383480037774,-0.3836062550544739,-40.27761459350586,-0.4497177004814148,-44.14035415649414,-0.0660606576129794,-4.550332546234131,0.068601394072175,8.384605407714844,L,False,True,0,L,100,,0.286,LeftResponse,correct,True,11.0
22,30,334.2556666666667,6079,334.183,334.187,334.19,0.180821767104395,22.69287322166105,-0.1651285290718078,-20.20806121826172,-0.1117908656597137,-13.581201553344728,0.0736822932958602,10.324764251708984,0.0584373176097869,7.8763322830200195,L,False,True,0,L,50,,0.269,LeftResponse,correct,True,9.0
23,31,336.9786666666667,6081,336.915,336.92,336.924,0.2967780205603214,28.60643295543931,-0.2515199780464172,-26.722633361816406,-0.1829368807375431,-22.174171447753903,-0.1575274392962455,-10.209254264831545,-0.2515374831855297,-21.48118782043457,L,False,True,0,L,50,,0.27,LeftResponse,correct,True,8.0
24,32,340.0346666666667,6085,339.622,339.628,339.633,0.4350339827201157,45.84485847174904,-0.4014148414134979,-42.89029312133789,-0.3226799219846725,-35.87132263183594,-0.1676922515034675,-16.191781997680664,-0.1727732364088297,-21.065452575683597,L,False,True,0,L,400,,0.212,LeftResponse,correct,True,12.0
25,34,350.07666666666665,6092,350.061,350.067,350.073,0.5269599668369139,54.09565776630768,-0.5259237736463547,-53.86294937133789,-0.4065226092934608,-43.90912628173828,-0.0330301523208618,-5.012272357940674,-0.020326342433691,-4.203857898712158,L,False,True,0,R,0,,0.225,RightResponse,correct,True,19.0
26,35,353.04566666666665,6098,352.831,352.836,352.842,0.4173833571536987,42.9228602531162,-0.3810902237892151,-39.14827728271485,-0.3074307143688202,-27.87906837463379,-0.1702325120568275,-17.600690841674805,-0.3557055536657572,-31.274486541748047,L,False,True,0,R,200,,0.329,LeftResponse,incorrect,True,8.0
27,38,369.30766666666665,6123,368.896,368.902,368.907,0.3821476150361225,38.4583300637226,-0.368385761976242,-37.0464973449707,-0.3201326504349708,-39.242801666259766,0.1016303598880767,10.324736595153809,0.1295766681432724,6.605869293212891,L,False,True,0,R,400,,0.362,LeftResponse,incorrect,True,11.0
28,39,372.4546666666667,6131,372.381,372.385,372.389,0.3129484442835807,33.33065244246651,-0.3099533021450043,-32.958614349365234,-0.1880176588892936,-20.395505905151367,-0.0431935095693916,-4.966098308563232,0.0076223760843276,0.7622379660606384,L,False,True,0,L,50,,0.362,LeftResponse,correct,True,7.0
29,41,476.2356666666667,1224,476.121,476.125,476.132,0.4878552976438052,45.9009131869633,0.4878288358449936,45.89568328857422,0.2439150558784604,31.436397552490234,-0.0050811767578125,-0.6928830146789551,-0.0025407373905181,3.6262869834899902,L,False,True,1,R,100,,0.324,LeftResponse,incorrect,True,10.0
30,42,482.21866666666665,6296,482.159,482.165,482.169,0.4257807096283053,45.82806283307307,-0.4242924004793167,-45.70888900756836,-0.3302463293075561,-31.199827194213867,-0.0355692505836486,-3.3028485774993896,-0.1753138378262519,-11.38729190826416,L,False,True,1,L,50,,0.381,RightResponse,incorrect,True,6.0
31,43,485.0706666666667,6302,484.858,484.862,484.867,0.2631618348129322,30.61974924496368,-0.2591573968529701,-30.51222038269043,-0.2439073473215103,-26.70050430297852,0.0457339584827423,2.5638742446899414,-0.1448235660791397,-16.053028106689453,L,False,True,1,R,200,,0.35,RightResponse,correct,True,14.0
32,45,495.2126666666667,6307,495.2,495.204,495.209,0.322717562286594,37.92124628555944,-0.3226775527000427,-37.903656005859375,-0.4242802262306213,-43.69850540161133,-0.0050815343856811,1.154894471168518,0.1499067954719066,15.729818344116213,L,False,True,1,L,0,,0.284,LeftResponse,correct,True,21.0
33,46,502.46866666666665,6313,502.406,502.412,502.418,0.4485880397245491,42.34980881050225,-0.4471756145358085,-40.144264221191406,-0.2895973920822143,-42.14599990844727,0.0355696380138397,13.488675117492676,0.0381085276603698,7.367457389831543,L,False,True,1,L,50,,0.293,LeftResponse,correct,True,9.0
34,47,505.40866666666665,6320,505.395,505.402,505.408,0.5022492156710974,45.07610831377545,-0.492882177233696,-43.32940673828125,-0.4039613455533981,-35.56878662109375,-0.0965475738048553,-12.426506042480469,0.0101631358265876,-0.4850578010082245,L,False,True,1,R,0,,0.256,RightResponse,correct,True,20.0
35,48,512.8816666666667,1285,512.823,512.829,512.836,0.65119730730026,69.77634768097123,0.6428111642599106,69.06253051757812,0.7418774850666523,70.97736358642578,0.1041716858744621,9.955178260803224,0.0279482752084732,21.042221069335938,L,False,True,1,R,50,,0.351,LeftResponse,incorrect,True,8.0
36,49,516.0246666666667,6327,515.612,515.62,515.626,0.6840575508358381,60.65319412941218,-0.6706744432449341,-59.861209869384766,-0.5868231058120728,-58.31266784667969,-0.1346496343612671,-9.76962184906006,-0.124497652053833,-13.53536319732666,L,False,True,1,R,400,,0.201,RightResponse,correct,True,14.0
37,50,519.1476666666666,6334,518.727,518.731,518.736,0.2923464233482286,31.538217234439088,-0.2921697497367859,-31.29575538635254,-0.2566106021404266,-26.977611541748047,-0.0101621150970458,-3.903183460235596,-0.1194165125489234,-12.703871726989746,L,False,True,1,L,400,,0.387,LeftResponse,correct,True,13.0
38,51,522.1616666666666,6341,521.739,521.742,521.747,0.2798831305672331,32.287391284374515,-0.2794676721096039,-32.26589584350586,-0.180389791727066,-19.24012756347656,0.0152442455291748,1.1779649257659912,0.0838461341336369,7.068020820617676,L,False,True,1,R,400,,0.285,RightResponse,correct,True,12.0
39,53,528.0696666666666,6351,527.856,527.862,527.867,0.4298831486760711,42.21948398980658,-0.3607838600873947,-34.461578369140625,-0.3556908965110779,-42.03610229492188,-0.2337402999401092,-24.3902530670166,-0.1549883261322975,-13.581680297851562,L,False,True,1,L,200,,0.344,LeftResponse,correct,True,13.0
40,54,530.9046666666667,6359,530.845,530.85,530.855,0.2873765011607395,32.88234886517174,-0.2870956063270569,-32.82089614868164,-0.3150383830070495,-35.33781814575195,-0.012703001499176,2.0093886852264404,-0.025407075881958,1.1779695749282837,L,False,True,1,R,50,,0.213,RightResponse,correct,True,11.0
41,55,533.4566666666667,6365,533.347,533.353,533.359,0.4177884301401926,40.27486579277159,-0.4166744649410248,-39.65805435180664,-0.3937870264053345,-41.06475067138672,0.0304887294769287,7.021647930145264,-0.0533566875383257,0.5774533748626709,L,False,True,1,R,100,,0.285,RightResponse,correct,True,13.0
42,56,536.9916666666667,1338,536.983,536.987,536.992,0.3106943527910094,37.7214288937849,0.241375058889389,30.9283504486084,0.5335614830255508,53.3562126159668,0.1956247985363006,21.59498405456543,0.3074346520006656,28.15654182434082,L,False,True,1,R,0,,0.244,LeftResponse,incorrect,True,18.0
43,57,539.7396666666667,1344,539.63,539.633,539.64,0.423720348622133,44.69443181244131,0.3912780508399009,43.72423553466797,0.2972549200057983,31.45758628845215,-0.1626051068305969,-9.26193618774414,-0.0584365427494049,-12.21852970123291,L,False,True,1,L,100,,0.332,LeftResponse,correct,True,12.0
44,60,554.5366666666666,6385,554.11,554.117,554.122,0.6616017279154913,63.11997746113028,-0.4852859899401665,-51.97005081176758,-0.3607674241065979,-43.19043350219727,0.4496825039386749,35.82241439819336,0.2744053155183792,26.14691734313965,L,False,True,1,R,400,,0.203,RightResponse,correct,True,11.0
45,61,557.7676666666666,1369,557.556,557.562,557.568,0.5071686954751221,52.38016385544096,0.4852889478206634,51.5548210144043,0.4547924143262207,50.72251129150391,-0.147359162569046,-9.26185703277588,-0.2261154651641845,-15.05921459197998,L,False,True,1,L,200,,0.331,LeftResponse,correct,True,12.0
46,62,563.6706666666666,6397,563.248,563.252,563.255,0.21569941033676,26.005815488582925,-0.1473657125607133,-15.960769653320312,-0.0431895852088928,-5.104206562042236,0.1575105786323547,20.531835556030277,0.2388203144073486,22.565658569335938,L,False,True,1,L,400,,0.223,LeftResponse,correct,True,10.0
47,63,566.5726666666667,1383,566.456,566.46,566.462,0.1600822561502856,19.662966619504783,0.129570722579956,15.10505199432373,-0.1219580294564366,-17.415952682495117,0.0940093430690467,12.588473320007324,-0.3557093963027,-36.74901580810547,L,True,False,1,L,100,,0.234,LeftResponse,correct,True,11.0
48,65,576.8106666666666,6415,576.746,576.751,576.756,0.3082816292127414,35.4630345792951,-0.3048709034919739,-35.29113006591797,-0.2870822846889496,-32.911720275878906,-0.0457306802272796,-3.48754358291626,0.0076223462820053,-3.0951476097106934,L,False,True,1,R,50,,0.298,RightResponse,correct,True,8.0
49,66,579.5796666666666,6419,579.365,579.371,579.376,0.3197529359243863,27.11940974517108,-0.3048285841941833,-26.995744705200195,-0.1956383362412452,-23.375043869018555,-0.096547782421112,-2.58691954612732,-0.1067127510905265,-7.368240356445312,L,False,True,1,R,200,,0.334,LeftResponse,incorrect,True,11.0
50,67,583.0306666666667,6426,582.617,582.624,582.629,0.5872519240417658,60.86786627274988,-0.5716041326522827,-58.89191055297852,-0.4319129586219787,-50.09722137451172,-0.1346608251333236,-15.383108139038086,-0.2210478307679295,-19.91044235229492,L,False,True,1,L,400,,0.285,LeftResponse,correct,True,9.0
51,68,589.4296666666667,6433,589.42,589.423,589.428,0.3218270461325574,38.53030911025332,-0.3201277107000351,-38.43379592895508,-0.1880026459693908,-18.846540451049805,-0.0330287218093872,-2.725445032119751,-0.1829219460487365,-8.33791732788086,L,False,True,1,L,0,,0.23,LeftResponse,correct,True,20.0
52,69,592.2566666666667,6440,592.144,592.15,592.155,0.4268860359623003,44.46020951870678,-0.4268179833889007,-44.46011352539063,-0.3963009119033813,-45.95856094360352,0.0076221227645874,0.0923891589045524,-0.1575285419821739,-10.093802452087402,L,False,True,1,L,100,,0.205,LeftResponse,correct,True,10.0
53,70,596.0746666666666,6445,595.663,595.669,595.674,0.3379162996617772,34.37968389317914,-0.3379067480564117,-34.3448371887207,-0.2693136930465698,-31.389039993286133,0.0025407075881958,-1.5475215911865234,-0.1346616223454475,-14.597972869873049,L,False,True,1,R,400,,0.303,LeftResponse,incorrect,True,8.0
54,71,598.9386666666667,6453,598.816,598.822,598.828,0.5202076600230678,52.33843259857933,-0.510683948174119,-51.55342483520508,-0.4420825764536857,-43.74639892578125,0.0990853905677795,9.030831336975098,0.2210401892662048,26.26161766052246,L,False,True,1,L,100,,0.356,LeftResponse,correct,True,9.0
55,72,603.1316666666667,4267,602.907,602.915,602.919,0.4443091068222887,33.14254441821645,0.1905588270165026,13.53546905517578,0.1524396240711212,12.518571853637695,0.4013700485229492,30.252592086791992,0.4141416950151324,44.255313873291016,L,False,True,1,R,200,,0.358,RightResponse,correct,True,14.0
56,73,607.9276666666667,6464,607.717,607.722,607.727,0.3139503936116274,34.03231731510876,-0.2871026992797851,-33.05263900756836,-0.139731615781784,-21.82550048828125,0.1270310580730438,8.106890678405762,0.3658698140643537,31.57448005676269,L,False,True,1,R,200,,0.214,RightResponse,correct,True,13.0
57,76,617.2536666666666,6478,617.241,617.248,617.252,0.3763696313757462,41.24095769427536,-0.3429815471172333,-34.45966720581055,-0.1956255733966827,-18.546127319335938,-0.1549766361713409,-22.657182693481445,-0.0660606101155281,-8.592500686645508,L,False,True,1,R,0,,0.248,RightResponse,correct,True,19.0
58,77,620.1846666666667,6490,619.973,619.978,619.983,0.3543244512721368,38.61728750664879,-0.3429871499538421,-37.786415100097656,-0.246447816491127,-31.250486373901367,-0.08891361951828,-7.967542171478271,-0.2058006227016449,-18.77838706970215,L,False,True,1,L,200,,0.234,LeftResponse,correct,True,11.0
59,78,626.1176666666667,6496,626.058,626.062,626.067,0.4194932058652976,41.88655641719292,-0.3811064809560776,-38.04154586791992,-0.3023236691951751,-30.971508026123047,0.1753065884113311,17.530670166015625,0.2312101311981678,25.84650611877441,L,False,True,1,R,50,,0.385,LeftResponse,incorrect,True,7.0
60,80,739.2036666666667,9056,738.792,738.799,738.807,0.6543449161950088,59.0860909100715,-0.1854772800579667,-24.85356330871582,-0.1575257033109665,-21.6426944732666,-0.6275073289871216,-53.6047248840332,-0.4192033261060714,-36.58548355102539,L,False,True,2,L,400,,0.38,LeftResponse,correct,True,11.0
61,81,746.9966666666667,1693,746.885,746.89,746.896,0.3644026162927848,35.62199028645616,0.363329310901463,35.61692810058594,0.2947314977645874,29.334592819213867,0.0279477834701538,-0.6005203127861023,0.0838458389043808,7.691627502441406,L,False,True,2,L,100,,0.271,RightResponse,incorrect,True,7.0
62,82,751.5686666666667,1702,751.459,751.467,751.47,0.4222548040589903,38.79429786672968,0.3252192996442318,28.31802749633789,0.5005322694778442,36.67937088012695,0.2693167775869369,26.51578521728516,0.1473655924201011,18.08575439453125,L,False,True,2,R,100,,0.206,RightResponse,correct,True,10.0
63,83,755.7276666666667,6657,755.714,755.719,755.724,0.4163935589827124,48.57859989864996,-0.4141475260257721,-47.65126800537109,-0.3785750232636928,-40.09803009033203,-0.0431905388832092,-9.446535110473633,0.0533561110496521,4.180727958679199,L,False,True,2,R,0,,0.296,RightResponse,correct,True,18.0
64,84,758.3136666666667,6662,758.25,758.255,758.26,0.3636483740495511,32.531237074041655,-0.3277601525187492,-31.205385208129883,-0.1880169957876205,-23.32889747619629,-0.1575227677822113,-9.19267749786377,-0.1041714549064636,-4.619568824768066,L,False,True,2,R,50,,0.221,RightResponse,correct,True,10.0
65,85,762.8716666666667,6668,762.757,762.763,762.768,0.3787123207876454,40.44488618755939,-0.3785759285092354,-40.44464874267578,-0.2439157143235206,-31.182418823242188,0.0101630836725234,0.1385886222124099,0.0584382740780711,1.0163179636001587,L,False,True,2,L,100,,0.303,LeftResponse,correct,True,9.0
66,86,765.5116666666667,6672,765.498,765.503,765.508,0.3878319886285268,49.90461594899136,-0.3607911840081215,-46.31153869628906,-0.3150577843189239,-39.54391098022461,-0.1422792077064514,-18.593334197998047,-0.1295789629220962,-17.762239456176758,L,False,True,2,L,0,,0.241,LeftResponse,correct,True,17.0
67,87,768.6716666666666,1735,768.46,768.464,768.469,0.2746981254946025,29.911126378899095,0.2744042389094829,29.888824462890625,0.2947266548871994,31.482240676879883,-0.0127032995223999,-1.1548391580581665,-0.0914678573608398,-7.252748012542725,L,False,True,2,R,200,,0.215,RightResponse,correct,True,10.0
68,89,779.5466666666666,6682,779.438,779.443,779.449,0.4826743976514063,52.84047367298171,-0.4649555939249694,-51.784793853759766,-0.3125145179219544,-31.874900817871094,0.1295795887708664,10.509556770324709,0.2159644961357116,27.878705978393555,L,False,True,2,R,100,,0.205,RightResponse,correct,True,8.0
69,90,783.5766666666667,6687,783.359,783.364,783.369,0.2623292793816174,24.32359494336257,-0.2439153902232647,-23.12116241455078,-0.2489968836307525,-22.728490829467773,0.0965501591563224,7.553086757659912,-0.1117944568395614,-12.842514038085938,L,False,True,2,L,200,,0.238,RightResponse,incorrect,True,9.0
70,91,786.1206666666667,1754,786.11,786.116,786.118,0.2874789155618324,34.44420302097701,0.2058024816215038,18.385892868041992,0.2515347525477409,24.298755645751957,-0.2007223591208458,-29.12665557861328,-0.3201388716697693,-34.90120315551758,L,False,True,2,R,0,,0.223,RightResponse,correct,True,16.0
71,92,788.6436666666667,6696,788.627,788.631,788.637,0.326602350946155,38.18653136930792,-0.2997985780239105,-33.76774978637695,-0.1956410184502601,-21.989404678344727,-0.1295758783817291,-17.831159591674805,0.0228671133518219,-4.342438220977783,L,False,True,2,L,0,,0.285,LeftResponse,correct,True,15.0
72,95,807.9826666666667,1768,807.97,807.976,807.981,0.5272206946373387,55.76406205992232,0.5157775431871414,55.68927383422852,0.6123173758387566,57.28233337402344,0.1092482805252075,2.88710880279541,0.1981758177280426,15.382901191711426,L,False,True,2,R,0,,0.34,LeftResponse,incorrect,True,13.0
73,96,812.8406666666667,9132,812.782,812.783,812.786,0.1344664848101075,20.617432523086546,-0.0508121848106384,-8.037554740905762,-0.0813052020967006,-6.998705863952637,-0.1244964152574539,-18.9862117767334,-0.0940038561820983,-23.327852249145508,L,False,True,2,R,50,,0.225,LeftResponse,incorrect,True,9.0
74,99,828.6906666666666,6727,828.279,828.285,828.29,0.5665622685055072,62.7625710077831,-0.5411784127354622,-59.799991607666016,-0.3658638894557953,-40.00484085083008,-0.1676864027976989,-19.05521774291992,-0.0355690419673919,-1.940102458000183,L,False,True,2,L,400,,0.23,LeftResponse,correct,True,12.0
75,100,831.8596666666667,6732,831.445,831.45,831.456,0.3358535460020044,32.58199892626271,-0.3252195827662945,-31.08987617492676,-0.2744042389094829,-30.76653480529785,0.0838440656661987,9.747115135192873,-0.091467946767807,-13.72020435333252,L,False,True,2,R,400,,0.311,RightResponse,correct,True,11.0
76,101,835.0856666666667,6740,835.019,835.026,835.031,0.4581359138980413,43.93483417789029,-0.4243103116750717,-37.55741882324219,-0.2718645483255386,-26.562824249267575,-0.1727694272994995,-22.79714775085449,-0.1956409513950348,-23.72176170349121,L,False,True,2,L,50,,0.377,LeftResponse,correct,True,12.0
77,103,845.5566666666667,1832,845.145,845.151,845.157,0.5238792439389689,51.2927308068535,0.5106759965419769,49.54347229003906,0.4497154727578163,47.07358932495117,0.1168738156557083,13.281136512756348,0.1092539466917514,9.308533668518066,L,False,True,2,L,400,,0.347,LeftResponse,correct,True,10.0
78,104,849.4286666666667,6755,849.368,849.373,849.379,0.3630728631262307,40.31037435856276,-0.3607897870242595,-40.30590057373047,-0.4141473174095154,-45.61862182617188,0.0406525954604148,-0.6005496382713318,0.086386788636446,1.9633324146270752,L,False,True,2,L,50,,0.213,LeftResponse,correct,True,11.0
79,105,852.9306666666666,1846,852.914,852.919,852.926,0.3507756510740234,30.48979594137914,0.3506283909082412,30.48948097229004,0.2210484892129898,21.365726470947266,-0.0101631134748458,0.1385878324508667,0.0101629942655563,-0.0461949706077575,L,False,True,2,R,0,,0.36,RightResponse,correct,True,16.0
80,106,855.5236666666667,6766,855.455,855.463,855.469,0.44541927343088,41.64957914457532,-0.3989026397466659,-37.23407745361328,-0.4217688664793968,-37.25716781616211,0.1981792449951172,18.663089752197266,0.269323255866766,24.53009796142578,L,False,True,2,R,50,,0.266,RightResponse,correct,True,10.0
81,107,858.7796666666667,1865,858.569,858.574,858.581,0.5226298797591152,47.48357313143197,0.5208419263362885,47.210880279541016,0.6555037386715412,67.23710632324219,0.0431935063097626,-5.081584453582764,0.2007188498973846,10.301589012145996,L,False,True,2,R,200,,0.396,RightResponse,correct,True,12.0
82,108,864.0086666666667,6781,863.94,863.944,863.948,0.2793124823061229,32.186356431633975,-0.2591593265533447,-31.04367446899414,-0.12195760384202,-14.713440895080566,0.104172483086586,8.500106811523438,0.0381107926368713,0.8546008467674255,L,False,True,2,L,50,,0.26,LeftResponse,correct,True,9.0
83,109,868.2516666666667,1877,867.841,867.844,867.849,0.2797700989251073,32.863319822162374,0.2312057465314865,28.04036521911621,0.2769435681402683,32.08298873901367,0.1575284451246261,17.13871955871582,0.0330301746726036,10.209342002868652,L,False,True,2,R,400,,0.331,RightResponse,correct,True,9.0
84,110,871.5486666666667,6793,871.435,871.441,871.446,0.5764274545468343,60.29769671045169,-0.569124136120081,-59.54570388793945,-0.378576785326004,-38.96638870239258,-0.0914676338434219,-9.4932279586792,0.0355709195137023,6.028552055358887,L,False,True,2,L,100,,0.246,LeftResponse,correct,True,7.0
85,111,875.7496666666667,6799,875.538,875.544,875.549,0.5348925162251524,59.89133585845998,-0.5183184593915939,-58.55341720581055,-0.406517643481493,-48.38930892944336,-0.1321210754103958,-12.588464736938477,-0.1295803445391357,-7.760962963104248,L,False,True,2,L,200,,0.239,LeftResponse,correct,True,11.0
86,112,881.3746666666667,6806,881.261,881.265,881.272,0.3561473900919357,36.23915924216716,-0.3557030186057091,-33.86090469360352,-0.2464567199349403,-30.60498046875,-0.0177855566143989,12.911847114562988,-0.1956247985363006,-20.925373077392575,L,False,True,2,L,100,,0.247,LeftResponse,correct,True,6.0
87,116,899.5146666666667,6830,899.505,899.511,899.517,0.6205646654473465,60.9141830700212,-0.6199350170791149,-60.90818786621094,-0.4446368813514709,-47.53577423095703,-0.0279477834701538,-0.8546051383018494,-0.0838450491428375,-4.896736145019531,L,False,True,2,L,0,,0.301,LeftResponse,correct,True,15.0
88,117,902.3036666666667,6839,902.094,902.101,902.106,0.3956206183068033,35.43261901488407,-0.3912807703018188,-34.947391510009766,-0.2998129799962044,-28.803333282470703,-0.0584382787346839,-5.843827247619629,0.0,-0.2309797704219818,L,False,True,2,L,200,,0.359,LeftResponse,correct,True,10.0
89,118,905.7306666666667,6846,905.517,905.523,905.529,0.5317646077624798,51.87035372209266,-0.5233888071961701,-51.738529205322266,-0.4802036359906196,-53.44843673706055,-0.0940093323588371,-3.695698976516724,-0.1143325120210647,-5.612663269042969,L,False,True,2,L,200,,0.387,LeftResponse,correct,True,9.0
90,119,908.3036666666667,6857,908.241,908.247,908.252,0.3825464524225734,39.442350772839504,-0.3811178505420685,-39.19744110107422,-0.3125170022249222,-27.85630798339844,-0.0330298691987991,-4.388581275939941,-0.1168763441964984,-15.63736057281494,L,False,True,2,L,50,,0.296,LeftResponse,correct,True,8.0
91,121,1013.0746666666666,6942,1013.063,1013.069,1013.074,0.4186415655051326,39.97461665519809,-0.4166631400585174,-39.95725631713867,-0.3074334501288831,-31.13603401184082,0.0406520366668701,-1.1779831647872925,-0.0736809372901916,-7.252606391906738,L,False,True,3,L,0,,0.237,RightResponse,incorrect,True,14.0
92,124,1032.9336666666666,6961,1032.823,1032.829,1032.835,0.5206578347901969,52.50634799666484,-0.515774555504322,-52.13189315795898,-0.3607883113436401,-39.266357421875,-0.0711420327425003,-6.259576320648193,0.0787640064954757,9.81662940979004,L,False,True,3,L,100,,0.239,RightResponse,incorrect,True,5.0
93,125,1035.9526666666666,6966,1035.838,1035.844,1035.85,0.4179901129586109,39.17505904929086,-0.41668301820755,-39.17390823364258,-0.2998123541474342,-26.655101776123047,-0.0330302417278289,0.3002752363681793,0.0101631507277488,9.054458618164062,L,False,True,3,R,100,,0.348,RightResponse,correct,True,8.0
94,127,1047.0976666666666,6977,1047.088,1047.093,1047.098,0.3679229181196888,39.80640604855554,-0.3582418337464332,-39.127197265625,-0.3048937655985355,-35.75568389892578,0.0838454663753509,7.322048664093018,0.0838460773229599,3.995968818664551,L,False,True,3,L,0,,0.317,LeftResponse,correct,True,17.0
95,128,1051.1826666666666,2100,1051.067,1051.071,1051.076,0.2628337317871109,27.6452314343466,0.2286712154746055,25.38482093811035,0.2312115840613842,24.66873359680176,0.1295802677050233,10.948501586914062,0.050815649330616,5.543524265289307,L,False,True,3,L,100,,0.269,LeftResponse,correct,True,7.0
96,130,1058.6096666666665,2129,1058.497,1058.502,1058.505,0.2605532136738573,30.768441322759976,0.1880118250846862,20.51032257080078,0.2693205624818802,31.96735382080078,-0.1803871691226959,-22.935205459594727,0.0,-6.2826924324035645,L,False,True,3,L,100,,0.322,LeftResponse,correct,True,6.0
97,131,1061.9736666666665,7013,1061.962,1061.967,1061.97,0.2185622575454022,26.073499234652346,-0.2185031771659851,-25.869298934936523,-0.325220413506031,-34.92428207397461,0.0050815343856811,-3.256798267364502,-0.030489295721054,-2.078810930252075,L,False,True,3,L,0,,0.358,LeftResponse,correct,True,16.0
98,132,1064.7216666666666,7018,1064.661,1064.666,1064.67,0.2670848732568927,28.57231330871582,-0.2667825706303119,-28.57231330871582,-0.2998116426169872,-30.235322952270508,-0.0127039179205894,1.6015845005767917e-07,-0.2007220068480819,-18.24745750427246,L,False,True,3,L,50,,0.296,LeftResponse,correct,True,7.0
99,133,1069.6596666666665,7023,1069.554,1069.559,1069.565,0.2616026191514549,28.992411457774782,-0.2566198036074638,-28.595443725585938,-0.2947314828634262,-33.33052062988281,0.0508154183626174,4.7812676429748535,0.063519649207592,8.523164749145508,L,False,True,3,L,100,,0.376,LeftResponse,correct,True,5.0
100,134,1072.7946666666667,7029,1072.679,1072.684,1072.689,0.3238762089785235,35.88550826238996,-0.3048930019140243,-34.60072708129883,-0.1931000165641307,-26.193220138549805,0.1092522591352462,9.51626968383789,0.0279485285282135,0.6236454844474792,L,False,True,3,R,100,,0.311,LeftResponse,incorrect,True,4.0
101,135,1076.5576666666666,7035,1076.346,1076.351,1076.357,0.4246831527027512,43.56315531425388,-0.4243105798959732,-43.56293487548828,-0.3404615446925163,-37.2337646484375,0.0177851617336273,0.1385855972766876,-0.1041724884416908,-7.784061908721924,L,False,True,3,R,200,,0.366,RightResponse,correct,True,8.0
102,136,1079.6226666666666,7040,1079.558,1079.564,1079.569,0.5990879694819785,61.4825144421038,-0.5945394933223724,-61.4636116027832,-0.4319322407245636,-48.50578689575195,-0.0736830106470733,-1.524477243423462,0.0330301523208618,3.649489164352417,L,False,True,3,R,50,,0.255,RightResponse,correct,True,6.0
103,137,1083.1156666666666,7049,1083.052,1083.057,1083.062,0.3785856091552027,46.00593496338765,-0.3785770833492279,-45.78035736083984,-0.3074352964758873,-36.610443115234375,0.0025407522916793,-4.550267219543457,0.0177854746580123,1.5013684034347534,L,False,True,3,L,50,,0.363,RightResponse,incorrect,True,5.0
104,138,1086.1426666666666,7053,1085.928,1085.937,1085.941,0.4485085095263155,39.78515406365652,-0.4293823949992656,-38.5726432800293,-0.2718640230596065,-28.433752059936523,-0.1295787096023559,-9.74729061126709,-0.1371964514255523,-15.983243942260742,L,False,True,3,L,200,,0.216,LeftResponse,correct,True,7.0
105,139,1088.6906666666666,7059,1088.678,1088.683,1088.688,0.4137798048842817,44.85366072034873,-0.3836577534675598,-43.37807846069336,-0.3709546625614166,-34.25445938110352,-0.1549853384494781,-11.410223007202148,-0.0889271423220634,-11.502824783325195,L,False,True,3,R,0,,0.334,RightResponse,correct,True,15.0
106,140,1092.5996666666665,2208,1092.591,1092.594,1092.599,0.2200512768306965,25.6041820296369,0.1880159378051757,21.019004821777344,0.1626098714768886,20.85749053955078,0.1143353469669818,14.621066093444824,0.1626009941101074,22.149829864501957,L,False,True,3,R,0,,0.357,RightResponse,correct,True,14.0
107,141,1096.6426666666666,2217,1096.233,1096.238,1096.242,0.3149748902944683,36.28118523693677,0.2998120412230491,34.94728088378906,0.4725648164749145,47.64898681640625,-0.0965500981546938,-9.747407913208008,0.0101629942655563,-10.994568824768066,L,False,True,3,L,400,,0.294,RightResponse,incorrect,True,7.0
108,142,1101.5006666666666,7080,1101.089,1101.093,1101.098,0.3061729063809171,35.813999658745644,-0.2921907901763916,-34.06968307495117,-0.2337497994303703,-28.94156646728516,0.0914679765701294,11.040800094604492,0.1422774791717529,12.40306568145752,L,False,True,3,R,400,,0.394,RightResponse,correct,True,10.0
109,143,1104.7896666666666,2238,1104.378,1104.382,1104.386,0.2548015640140429,29.628335264115133,0.2515376769006252,29.49621963500977,0.2616900950670242,31.64296531677246,-0.0406526029109954,-2.7948663234710693,-0.0330278575420379,-2.956342458724976,L,False,True,3,L,400,,0.347,LeftResponse,correct,True,9.0
110,144,1107.7496666666666,7094,1107.736,1107.743,1107.747,0.3663802331472054,38.75590859413836,-0.3480830565094948,-36.79463958740234,-0.2921907156705856,-28.57235717773437,-0.1143357381224632,-12.17271327972412,-0.1016313731670379,-12.819421768188477,L,False,True,3,R,0,,0.206,RightResponse,correct,True,13.0
111,146,1117.9626666666666,2257,1117.904,1117.909,1117.914,0.3390784158071909,37.19246246263448,0.2769454643130302,32.49895477294922,0.3480878472328186,36.17159652709961,-0.1956409513950348,-18.08582878112793,-0.2083411812782287,-19.148033142089844,L,False,True,3,R,50,,0.247,LeftResponse,incorrect,True,8.0
112,147,1120.7816666666665,7110,1120.572,1120.575,1120.579,0.274825860155111,32.57802243062936,-0.2591577880084514,-31.36687469482422,-0.1880167350172996,-23.9755973815918,-0.0914685428142547,-8.800381660461426,-0.0330287814140319,-4.411552429199219,L,False,True,3,L,200,,0.218,RightResponse,incorrect,True,6.0
113,148,1127.6176666666665,7121,1127.547,1127.551,1127.555,0.2831126306800929,30.484426330268725,-0.2642421349883079,-27.140268325805664,-0.1295804195106029,-15.31405258178711,0.1016309782862663,13.881861686706545,0.025406390428543,2.2172837257385254,L,False,True,3,R,50,,0.237,LeftResponse,incorrect,True,11.0
114,149,1133.0596666666665,7126,1132.847,1132.852,1132.856,0.2877829780447728,30.430616470587783,-0.2794868275523186,-29.31148910522461,-0.2489948980510234,-27.186153411865234,0.0686014262028038,8.176736831665039,-0.0635185539722442,-10.855934143066406,L,False,True,3,L,200,,0.292,LeftResponse,correct,True,9.0
115,150,1136.4396666666667,7130,1136.227,1136.235,1136.239,0.3538440859685145,32.306224288690544,-0.3455366343259811,-31.66631317138672,-0.3379247337579727,-31.829174041748047,0.0762238251045346,6.398182392120361,0.170229896903038,2.8410372734069824,L,False,True,3,R,200,,0.233,RightResponse,correct,True,8.0
116,151,1139.8206666666665,7132,1139.408,1139.414,1139.419,0.4111630176005704,43.44604800796521,-0.4014310538768768,-42.77627944946289,-0.3684137463569641,-40.23677062988281,0.0889277011156082,7.599276542663574,0.0,3.025813579559326,L,False,True,3,R,400,,0.376,LeftResponse,incorrect,True,8.0
117,152,1143.2426666666665,7141,1143.028,1143.033,1143.037,0.3471212988354115,39.822804286541725,-0.3455462381243706,-39.75167465209961,-0.2083449438214302,-24.830472946166992,-0.0330301895737648,-2.3790972232818604,0.0304895327426493,8.962074279785156,L,False,True,3,R,200,,0.269,RightResponse,correct,True,7.0
118,153,1146.3656666666666,7147,1146.354,1146.36,1146.366,0.4534870419717094,43.706669493946514,-0.4497060030698776,-43.376914978027344,-0.4065199852921068,-42.26893997192383,-0.0584380701184272,-5.358750343322754,-0.0686002969741821,-4.6888747215271,L,False,True,3,R,0,,0.3,RightResponse,correct,True,12.0
119,154,1149.1096666666665,7155,1148.997,1149.004,1149.01,0.5713453483246271,58.58226186497718,-0.5665742866694927,-57.62763214111328,-0.3887395113706589,-44.463714599609375,-0.0736823230981826,-10.53268337249756,0.0762232095003128,20.85732078552246,L,False,True,3,R,100,,0.253,LeftResponse,incorrect,True,7.0
120,155,1155.3586666666665,7161,1154.946,1154.952,1154.958,0.5671589195711698,61.16303805444105,-0.5132324919104576,-55.2266731262207,-0.3963622897863388,-46.75040817260742,0.2413745000958442,26.28558158874512,0.1270300149917602,11.525004386901855,L,False,True,3,R,400,,0.253,RightResponse,correct,True,11.0
121,156,1158.8306666666665,7170,1158.416,1158.422,1158.427,0.4182311775273672,42.63936062651126,-0.4141283482313156,-42.56767272949219,-0.2921899780631065,-36.95685958862305,0.0584382498636841,2.4715001583099365,0.1244989000260829,13.674087524414062,L,False,True,3,L,400,,0.337,RightResponse,incorrect,True,10.0
122,157,1162.3366666666666,7178,1162.325,1162.331,1162.335,0.3855351183455244,40.02306805226396,-0.3836467415094375,-39.68117904663086,-0.2845683768391609,-31.690574645996094,0.0381117463111877,5.22015380859375,0.0508154183626174,3.2799060344696045,L,False,True,3,L,0,,0.289,LeftResponse,correct,True,11.0
123,158,1165.5626666666665,2354,1165.351,1165.355,1165.36,0.2741795321886345,31.447799164959225,0.2718623224645853,30.95119857788086,0.1854778379201889,20.94999313354492,0.0355709642171859,5.566630840301514,0.0660593658685684,6.120890140533447,L,False,True,3,L,200,,0.351,LeftResponse,correct,True,6.0
124,160,1249.8296666666665,2422,1249.421,1249.427,1249.435,0.966863376878153,87.38499672821293,0.7977878898382187,78.94806671142578,0.9247656865045428,86.95489501953125,0.5462227314710617,37.461185455322266,0.5309573709964752,35.658042907714844,L,False,True,4,R,400,,0.285,LeftResponse,incorrect,True,13.0
125,164,1276.9746666666665,2466,1276.569,1276.573,1276.577,0.2406753610789454,26.438359298057083,0.2362901344895362,26.285266876220703,0.2972718030214309,34.62399673461914,-0.0457340329885482,-2.8410539627075195,-0.0990890860557556,-13.489054679870604,L,False,True,4,L,400,,0.329,LeftResponse,correct,True,16.0
126,165,1280.1766666666665,7296,1279.963,1279.969,1279.972,0.2342472403717934,23.841889085824345,-0.2134241014719009,-21.226882934570312,-0.208343219012022,-22.543554306030277,-0.0965501037426292,-10.856109619140623,-0.1321188509464264,-14.805615425109863,L,False,True,4,L,200,,0.261,RightResponse,incorrect,True,5.0
127,167,1289.6566666666665,7306,1289.543,1289.549,1289.554,0.4143061835430204,43.53811959608811,-0.4141113758087158,-43.53590774536133,-0.3582009077072143,-42.79453659057617,-0.0127036273479461,0.4388561844825744,-0.1270208358764648,-17.667325973510742,L,False,True,4,L,100,,0.289,LeftResponse,correct,True,10.0
128,168,1294.2526666666665,7312,1294.139,1294.145,1294.151,0.5566867949981105,58.13569722944113,-0.5564026087522507,-58.13503646850586,-0.3048575222492218,-35.42820739746094,-0.0177855193614959,-0.2771771252155304,-0.081298679113388,-8.129864692687988,L,False,True,4,L,100,,0.285,LeftResponse,correct,True,9.0
129,169,1296.9796666666666,7317,1296.968,1296.976,1296.981,0.7752410808606293,80.82700758264814,-0.7037265300750732,-73.32791137695312,-0.4623782038688659,-52.334598541259766,-0.3252194710075855,-34.00033187866211,-0.2921586632728576,-35.24412155151367,L,False,True,4,R,0,,0.361,RightResponse,correct,True,10.0
130,170,1301.5266666666666,9552,1301.312,1301.316,1301.321,0.3010155410380412,34.14296307770252,0.1117927134037017,16.122190475463867,0.2083359956741333,25.70713424682617,-0.2794865742325783,-30.096792221069336,-0.1346539258956909,-9.76998233795166,L,False,True,4,R,200,,0.239,RightResponse,correct,True,8.0
131,173,1317.9556666666665,7346,1317.841,1317.847,1317.853,0.4970897312870744,54.95957740637825,-0.4954246282577514,-54.25416564941406,-0.365810215473175,-40.13742446899414,0.0406526587903499,8.777280807495117,0.1600301861763,5.4037604331970215,L,False,True,4,R,100,,0.255,RightResponse,correct,True,8.0
132,174,1321.0026666666665,7352,1320.587,1320.593,1320.597,0.379453640517107,43.02649791749704,-0.3557095676660537,-38.7122917175293,-0.2566011548042297,-29.724889755249023,-0.132120281457901,-18.778657913208008,-0.2337313890457153,-20.62460708618164,L,False,True,4,L,400,,0.273,LeftResponse,correct,True,15.0
133,175,1325.9576666666665,2550,1325.747,1325.752,1325.759,0.410195369975545,39.35776321288573,0.4039790434762835,39.1044807434082,0.3506255107931793,26.239185333251957,0.0711419284343719,4.4579267501831055,0.1066972613334655,14.434358596801758,L,False,True,4,L,200,,0.217,LeftResponse,correct,True,6.0
134,176,1331.4276666666665,7365,1331.365,1331.368,1331.371,0.1905579769634285,23.983574194471554,-0.1829359196126461,-22.6129093170166,-0.2083258628845214,-24.089189529418945,0.05335533618927,7.991755962371826,0.050806701183319,6.466310501098633,L,False,True,4,R,50,,0.372,RightResponse,correct,True,12.0
135,177,1334.1796666666667,7373,1334.166,1334.173,1334.174,0.2679770680970326,30.48958401651773,-0.1803765892982483,-12.078947067260742,-0.1625946164131164,-10.901185035705566,-0.1981817223131656,-27.994888305664062,-0.1321125626564026,-18.407909393310547,L,False,True,4,L,0,,0.249,LeftResponse,correct,True,9.0
136,178,1337.2526666666665,7377,1337.139,1337.146,1337.152,0.5010022694531184,44.00747344914838,-0.4877824187278747,-43.65105438232422,-0.3353440761566162,-38.31502532958984,-0.1143310368061065,-5.589559078216553,-0.1270104646682739,-5.773207187652588,L,False,True,4,R,100,,0.364,RightResponse,correct,True,7.0
137,179,1340.2796666666666,9605,1339.871,1339.877,1339.884,0.4390216971068305,39.14653444163648,-0.0914657413959503,-11.871699333190918,0.035569280385971,-3.418241024017334,-0.429388016462326,-37.303001403808594,-0.3480508327484131,-29.42308807373047,L,False,True,4,R,400,,0.225,LeftResponse,incorrect,True,14.0
138,180,1344.3136666666664,2585,1344.248,1344.254,1344.26,0.4800528389844815,49.87524004887344,0.4649629145860672,49.591495513916016,0.4776628464460373,48.55180740356445,-0.1194161474704742,-5.312545776367188,-0.0381010174751281,-11.546297073364258,L,False,True,4,L,50,,0.294,LeftResponse,correct,True,11.0
139,181,1351.6286666666665,7400,1351.569,1351.576,1351.581,0.4320995015781682,43.31639389203707,-0.4319127202033996,-42.91409683227539,-0.3099632561206817,-26.33057975769043,-0.0127035975456237,-5.88984489440918,-0.147331953048706,1.5933531522750854,L,False,True,4,R,50,,0.342,RightResponse,correct,True,10.0
140,182,1354.7266666666665,7409,1354.313,1354.32,1354.325,0.4179532239901499,44.87466726956092,-0.3430028641596436,-36.47148513793945,-0.3150241374969482,-37.021949768066406,0.2388177812099456,26.14510536193848,0.0660511255264282,16.16608428955078,L,False,True,4,L,400,,0.256,LeftResponse,correct,True,17.0
141,183,1362.8446666666666,2616,1362.433,1362.439,1362.445,0.4660164575825081,43.76783978151977,0.4547999054193496,40.74499130249024,0.6631227061152458,57.09654235839844,-0.1016286611557006,-15.983412742614746,-0.0685812830924987,-4.641439914703369,L,False,True,4,L,400,,0.254,LeftResponse,correct,True,16.0
142,185,1368.1866666666665,7431,1368.173,1368.18,1368.186,0.4804765784181398,43.77161299570261,-0.457319900393486,-42.31381607055664,-0.3379146158695221,-42.06055068969727,-0.1473643481731414,-11.202458381652832,-0.0965301394462585,-3.671837568283081,L,False,True,4,L,0,,0.216,LeftResponse,correct,True,7.0
143,186,1372.3336666666667,7438,1372.271,1372.276,1372.281,0.3337858421543022,37.20351400983503,-0.332817405462265,-37.16207504272461,-0.3683659732341766,-40.25497055053711,0.0254079326987266,-1.755458116531372,-0.086373746395111,-5.981521129608154,L,False,True,4,L,50,,0.262,LeftResponse,correct,True,9.0
144,187,1375.1146666666666,7447,1375.0,1375.005,1375.01,0.3149911921897089,33.49188603319573,-0.2972681745886802,-31.89799118041992,-0.2439069598913192,-25.268335342407227,-0.1041685342788696,-10.209044456481934,-0.2489566206932068,-24.387975692749023,L,False,True,4,L,100,,0.209,LeftResponse,correct,True,6.0
145,188,1378.9576666666665,7454,1378.893,1378.899,1378.905,0.4189146351667553,38.92284056166273,-0.4166820496320724,-38.34215927124024,-0.3328031003475189,-33.88099670410156,0.043191909790039,6.698234081268311,-0.0609665513038635,5.750354290008545,L,False,True,4,R,50,,0.262,RightResponse,correct,True,8.0
146,189,1383.1206666666665,7460,1383.058,1383.065,1383.07,0.4277200230371825,44.5322359532194,-0.4217622615396976,-44.07022476196289,-0.3835954070091247,-39.28315734863281,-0.0711407959461212,-6.398072242736816,-0.0609660148620605,-10.807310104370115,L,False,True,4,R,50,,0.39,LeftResponse,incorrect,True,7.0
147,190,1386.2016666666666,9671,1385.979,1385.984,1385.99,0.5355650444491176,58.49997468089844,-0.1905550360679626,-25.52260971069336,-0.0914644598960876,-14.042888641357422,-0.5005184262990952,-52.63880157470703,-0.353114366531372,-41.50099182128906,L,False,True,4,L,200,,0.218,LeftResponse,correct,True,5.0
148,191,1392.8756666666666,7482,1392.465,1392.469,1392.473,0.2478010970708848,25.958066627095885,-0.238833395531401,-25.84667587280273,-0.1905388832092285,-23.441974639892575,-0.0660605244338512,-2.402200937271118,0.0279436707496643,5.888904094696045,L,False,True,4,R,400,,0.364,RightResponse,correct,True,15.0
149,192,1395.6356666666666,7490,1395.623,1395.63,1395.636,0.6105205670853746,60.15461666748144,-0.5182826370000839,-52.797977447509766,-0.4115723371505737,-43.882137298583984,-0.3226739391684532,-28.826229095458984,-0.4166252017021179,-36.14431381225586,L,False,True,4,L,0,,0.327,LeftResponse,correct,True,6.0
150,193,1398.5046666666665,7493,1398.093,1398.097,1398.102,0.3360008278009413,38.50919179583921,-0.2413699030876159,-29.818971633911133,-0.2261179983615875,-25.452667236328125,0.2337458580732345,24.36774063110352,0.0711289644241333,3.140821933746338,L,False,True,4,R,400,,0.283,RightResponse,correct,True,14.0
151,194,1401.5146666666665,9688,1401.299,1401.303,1401.308,0.2864220774316885,28.489989911429586,0.1219578050076961,12.888728141784668,0.2540777942631393,27.348051071166992,-0.2591599896550178,-25.40787696838379,-0.1219416856765747,-7.298122406005859,L,False,True,4,R,200,,0.364,LeftResponse,incorrect,True,4.0
152,195,1404.4326666666666,9694,1404.212,1404.214,1404.219,0.2533855523780677,32.19754793609062,0.1143340468406677,17.71593475341797,0.1626086384057998,23.836917877197266,-0.2261237800121307,-26.88545608520508,-0.2946938872337341,-30.71695327758789,L,False,True,4,L,200,,0.37,LeftResponse,correct,True,7.0
153,196,1407.2016666666666,7514,1406.992,1406.998,1407.004,0.5397091884879575,51.41115815210649,-0.4827308729290962,-46.77208709716797,-0.3811016529798507,-40.81250762939453,-0.2413646876811981,-21.341955184936523,-0.2718336284160614,-18.407197952270508,L,False,True,4,R,200,,0.275,RightResponse,correct,True,6.0
154,198,1417.3226666666665,7526,1417.311,1417.317,1417.321,0.477345930083192,50.63853265315556,-0.3734848797321319,-38.872840881347656,-0.215938925743103,-18.914608001708984,-0.2972678616642952,-32.452476501464844,-0.1575036644935608,-21.524002075195312,L,False,True,4,L,0,,0.244,LeftResponse,correct,True,5.0
155,199,1420.4956666666665,9716,1420.384,1420.387,1420.391,0.2192952685609983,24.88383870346705,0.0381119241937994,4.319350242614746,0.081304594874382,12.449769973754885,-0.2159580886363983,-24.50609397888184,-0.3327614665031433,-34.361846923828125,L,False,True,4,R,100,,0.375,RightResponse,correct,True,5.0
156,201,1504.8366666666666,7652,1504.771,1504.776,1504.781,0.2802577410891105,31.448053583329383,-0.2591464221477508,-29.65634155273437,-0.251537412405014,-24.6917781829834,-0.1067123860120773,-10.463339805603027,-0.1397418677806854,-8.107316970825195,L,False,True,5,L,50,,0.328,LeftResponse,correct,True,10.0
157,202,1509.1376666666665,7657,1509.074,1509.079,1509.083,0.3465901185476168,40.47233145775181,-0.3124942481517792,-36.90797805786133,-0.2617005910724401,-28.45677947998047,0.1499068215489387,16.60755157470703,0.2896419316530227,28.017194747924805,L,False,True,5,R,50,,0.393,RightResponse,correct,True,9.0
158,203,1514.9536666666665,7663,1514.539,1514.546,1514.551,0.4500672247137261,45.2986127175968,-0.4497156664729118,-45.24874114990234,-0.2845675572752952,-33.14561462402344,-0.0177855584770441,2.12502670288086,0.0965499505400657,2.3098106384277344,L,False,True,5,R,400,,0.246,RightResponse,correct,True,13.0
159,204,1517.7266666666665,7670,1517.606,1517.611,1517.614,0.3152677121077193,34.9897515621387,-0.2388281524181366,-25.86912727355957,-0.1499062106013298,-15.77596664428711,-0.2058029249310493,-23.55994415283203,-0.1981739401817321,-26.0998477935791,L,False,True,5,R,100,,0.268,RightResponse,correct,True,3.0
160,205,1520.8746666666666,7679,1520.811,1520.816,1520.822,0.3660419025843842,36.724287042177096,-0.3557021394371986,-36.1707878112793,-0.2820276618003845,-34.23137664794922,0.0863867029547691,6.35195779800415,0.071142221102491,6.62915563583374,L,False,True,5,L,50,,0.38,LeftResponse,correct,True,8.0
161,206,1524.7126666666666,7684,1524.651,1524.656,1524.661,0.3196306396176589,31.79978063077413,-0.292185977101326,-29.518911361694336,-0.3023534566164017,-34.69327926635742,0.1295804791152477,11.826238632202148,0.152447355678305,13.46617031097412,L,False,True,5,L,50,,0.24,RightResponse,incorrect,True,7.0
162,207,1527.3156666666666,7688,1527.301,1527.306,1527.312,0.4035373709576166,42.17641134949426,-0.3658732324838638,-39.543907165527344,-0.2312098257243633,-27.85598373413086,-0.1702327451203018,-14.667279243469238,0.0355702340602874,8.245854377746582,L,False,True,5,R,0,,0.275,RightResponse,correct,True,4.0
163,208,1530.5626666666665,7694,1530.149,1530.156,1530.162,0.5183130502700806,53.32894122023876,-0.5183130502700806,-53.19423294067383,-0.3099702522158623,-28.38711166381836,0.0,3.7880804538726807,0.1219546496868133,10.278337478637695,L,False,True,5,R,400,,0.272,LeftResponse,incorrect,True,12.0
164,209,1534.5176666666666,9857,1534.407,1534.409,1534.411,0.151086456754341,23.075067989516665,0.1016317382454872,13.88197135925293,0.1753039956092834,27.184911727905277,-0.1117949336767196,-18.43229866027832,-0.0254078060388565,-5.728302955627441,L,False,True,5,R,100,,0.343,LeftResponse,incorrect,True,2.0
165,210,1537.5026666666665,7706,1537.437,1537.443,1537.448,0.3750105909396949,38.16819889905705,-0.3379215360619128,-34.13864517211914,-0.2921849861741066,-30.465940475463867,-0.1626098975539207,-17.06939697265625,-0.2058034432120621,-23.698591232299805,L,False,True,5,L,50,,0.307,LeftResponse,correct,True,10.0
166,212,1548.6316666666667,7716,1548.508,1548.512,1548.517,0.2696190248032554,30.25098902742202,-0.2693195641040802,-29.70367813110352,-0.1397429890930652,-17.300416946411133,0.0127039728686213,5.728336811065674,0.0457320213317871,5.266118049621582,L,False,True,5,L,100,,0.322,RightResponse,incorrect,True,5.0
167,213,1551.7246666666665,9874,1551.3,1551.305,1551.312,0.384625075021791,36.15762419490455,0.1016317335888743,9.100664138793944,0.1219531595706939,14.019929885864258,-0.370954766869545,-34.993595123291016,-0.3430049084126949,-21.06546974182129,L,False,True,5,R,400,,0.349,RightResponse,correct,True,15.0
168,214,1555.1846666666665,7724,1554.768,1554.776,1554.781,0.4043756566503819,37.11014337394056,-0.4039843380451202,-37.02620315551758,-0.2769461125135422,-31.52890968322754,-0.0177855645306408,2.494598388671875,-0.0762210190296173,-0.3464492559432983,L,False,True,5,L,400,,0.391,LeftResponse,correct,True,14.0
169,215,1558.0076666666666,7730,1557.996,1558.001,1558.006,0.3839585130229324,43.85963070796172,-0.3836557529866695,-43.72439193725586,-0.2642411589622497,-28.80323600769043,-0.0152447670698165,-3.4416210651397705,-0.0254078358411788,-3.834273815155029,L,False,True,5,R,0,,0.261,LeftResponse,incorrect,True,3.0
170,216,1562.3996666666665,3007,1562.39,1562.395,1562.4,0.650723500455747,75.5122666696933,0.6376911699771881,74.34745025634766,0.7393491864204407,75.32032012939453,0.1295802677050233,13.212080001831056,-0.0381110310554504,-4.2961039543151855,L,False,True,5,L,0,,0.26,RightResponse,incorrect,True,6.0
171,217,1566.1806666666666,9888,1565.765,1565.77,1565.778,0.3029054746565753,25.953064006658398,0.0431930720806121,13.858694076538086,0.1117905676364898,22.126930236816406,-0.2998100817203522,-21.943065643310547,-0.2439146996475756,-20.695884704589844,L,False,True,5,L,400,,0.382,LeftResponse,correct,True,13.0
172,218,1569.5406666666665,7745,1569.328,1569.334,1569.34,0.6175351621306797,69.80302299873806,-0.6174044758081436,-69.80164337158203,-0.3684139400720596,-45.80344009399414,-0.01270392537117,0.4388648867607116,0.0914675295352935,11.017661094665527,L,False,True,5,L,200,,0.246,LeftResponse,correct,True,5.0
173,220,1580.3486666666665,3043,1580.329,1580.332,1580.335,0.1448468565925027,18.16446025366832,0.1346613392233848,16.653657913208008,0.1219570934772491,16.191648483276367,0.0533566826488822,7.25281286239624,0.0025407373905181,1.709228277206421,L,False,True,5,R,0,,0.314,RightResponse,correct,True,9.0
174,221,1583.0666666666666,7762,1583.004,1583.011,1583.016,0.3867982792260795,39.65634239681428,-0.381115335971117,-39.520469665527344,-0.3938135355710983,-46.86510467529297,-0.0660606501623988,-3.2799344062805176,0.0863850712776184,5.150796413421631,L,False,True,5,R,50,,0.307,RightResponse,correct,True,9.0
175,222,1585.8236666666667,7769,1585.714,1585.717,1585.722,0.2696223271595614,32.964707273742725,-0.2693228758871555,-32.89159393310547,-0.294721320271492,-34.41489028930664,-0.012703850865364,2.194304943084717,-0.1270388215780258,-11.641393661499023,L,False,True,5,R,100,,0.34,LeftResponse,incorrect,True,8.0
176,223,1588.6706666666666,3069,1588.458,1588.463,1588.468,0.3109314141566698,29.58371987831702,0.3048932887613773,29.565454483032227,0.2591484189033508,29.86443901062012,-0.0609789043664932,-1.0394147634506226,-0.1143292784690857,-10.786216735839844,L,False,True,5,L,200,,0.318,LeftResponse,correct,True,4.0
177,224,1593.2506666666666,7787,1593.19,1593.196,1593.201,0.6532917080953943,77.70708785670845,-0.6529754251241684,-77.6318588256836,-0.416684627532959,-44.46318435668945,-0.020326092839241,-3.4184789657592773,0.0279481410980224,7.04478645324707,L,False,True,5,R,50,,0.226,RightResponse,correct,True,8.0
178,226,1605.4456666666665,5424,1605.426,1605.429,1605.434,0.2812141280803803,32.138242699737155,-0.1600699461996555,-20.23394775390625,-0.012703962624073,-4.827500820159912,0.2312120199203491,24.96906089782715,0.1524396240711212,13.48850917816162,L,False,True,5,L,0,,0.251,LeftResponse,correct,True,8.0
179,227,1608.1016666666665,7804,1607.989,1607.994,1607.998,0.2861257496335621,33.87433526329574,-0.2820239067077636,-33.05293273925781,-0.2362917177379131,-28.087108612060547,0.0482748448848724,7.4144606590271,0.0076221525669097,3.141238212585449,L,False,True,5,L,100,,0.29,LeftResponse,correct,True,11.0
180,228,1610.6456666666666,7810,1610.435,1610.44,1610.445,0.340436901859692,38.70184140219448,-0.3353837430477142,-38.50447463989258,-0.3302942812442779,-35.31610107421875,0.0584382498636841,3.90358304977417,0.0431919395923614,9.747050285339355,L,False,True,5,L,200,,0.203,RightResponse,incorrect,True,3.0
181,229,1617.3066666666666,7816,1617.192,1617.198,1617.204,0.6789576969463904,70.14867276429091,-0.6783822476863861,-70.1482925415039,-0.3785769194364548,-44.76403427124024,0.0279478132724761,-0.2309634238481521,0.1625929474830627,23.16447257995605,L,False,True,5,L,100,,0.243,LeftResponse,correct,True,10.0
182,230,1620.6416666666667,3126,1620.424,1620.429,1620.434,0.2693642076296196,28.526343870802723,0.2693162709474563,28.04033470153809,0.2540784999728203,25.26927947998047,-0.0050815897993743,-5.243274211883545,0.071141168475151,6.790763378143311,L,False,True,5,R,200,,0.383,RightResponse,correct,True,6.0
183,232,1631.4626666666666,7840,1631.248,1631.252,1631.255,0.2136179709970143,27.633920017100586,-0.1905540972948074,-23.605619430541992,-0.1626094579696655,-17.27726936340332,-0.0965493321418762,-14.366915702819824,-0.1219573840498924,-20.441726684570312,L,False,True,5,R,200,,0.288,LeftResponse,incorrect,True,5.0
184,233,1635.1096666666665,7849,1634.693,1634.697,1634.702,0.2859374729032427,31.481277346523,-0.2769461125135422,-30.95145606994629,-0.2286712378263473,-25.20003890991211,0.0711413323879242,5.751364231109619,0.0838386416435241,5.612344741821289,L,False,True,5,R,400,,0.294,RightResponse,correct,True,12.0
185,234,1638.0156666666664,7860,1637.6,1637.606,1637.611,0.4569484118980603,46.84660908377328,-0.4141433667391538,-44.09383010864258,-0.2134250812232494,-23.69850349426269,-0.1930987387895584,-15.822102546691896,-0.2870910465717315,-17.391756057739258,L,False,True,5,L,400,,0.267,LeftResponse,correct,True,11.0
186,235,1640.8586666666665,7866,1640.449,1640.455,1640.46,0.4345999381582967,42.43131448502722,-0.4243104755878448,-41.09139633178711,-0.3912744000554085,-40.1208610534668,0.0940091833472251,10.578922271728516,0.226121187210083,22.51957130432129,L,False,True,5,L,400,,0.215,LeftResponse,correct,True,10.0
187,236,1643.4486666666667,3169,1643.383,1643.388,1643.392,0.2922006071305826,31.78784044109493,0.2566184164024889,28.22571182250977,0.3124907910823822,30.001638412475582,-0.1397432759404182,-14.62108039855957,-0.0889164209365844,-8.72994327545166,L,False,True,5,R,50,,0.397,RightResponse,correct,True,7.0
188,237,1648.1116666666665,7878,1647.9,1647.905,1647.91,0.3618725530842739,42.342697894927454,-0.3607916980981827,-42.33876037597656,-0.2261304557323455,-24.437801361083984,-0.0279480814933776,-0.5774381756782532,-0.0228663682937622,1.3165521621704102,L,False,True,5,R,200,,0.384,RightResponse,correct,True,8.0
