,trialIndex,targetOnsetTime,Unnamed: 0,startTime,peakVelocityTime,stopTime,amplitude,peakVelocity,saccade_vec_left_x,peak_velocity_vec_left_x,saccade_vec_right_x,peak_velocity_vec_right_x,saccade_vec_left_y,peak_velocity_vec_left_y,saccade_vec_right_y,peak_velocity_vec_right_y,whichEye,otherEyeMissingData,isBinocular,blockId,arrowDirection,latency,blankDuration,fixationDurationInSec,response,result,isSaccade,blankDurationInFrameCount
0,0,253.61866666666668,924,253.507,253.513,253.515,0.2686872134172075,31.09843510346561,0.2057835757732391,18.938697814941406,0.2921886802650988,30.720186233520508,-0.1727597713470459,-24.66654396057129,-0.0863848775625228,-20.81093406677246,L,False,True,0,L,100,,0.29,RightResponse,incorrect,True,8.0
1,1,259.61766666666665,935,259.209,259.213,259.219,0.2385702540616675,22.709725904242585,0.2362734377384185,22.079816818237305,0.261701375246048,28.22588157653809,-0.0330246686935424,-5.3116230964660645,-0.0177849531173706,-5.289297580718994,L,False,True,0,R,400,,0.289,LeftResponse,incorrect,True,8.0
2,2,266.9496666666667,7378,266.885,266.892,266.898,0.5829289623777106,59.24107356233143,-0.5716086030006409,-57.4381103515625,-0.5030621830374002,-52.03875732421875,-0.1143231391906738,-14.504077911376951,-0.1219491958618164,-10.43967342376709,L,False,True,0,R,50,,0.354,RightResponse,correct,True,8.0
3,3,270.86266666666666,7384,270.849,270.856,270.862,0.5326159237683483,54.80314948118583,-0.5055286586284637,-53.43942642211914,-0.3607916980981827,-38.61998748779297,-0.1676916740834713,-12.14960479736328,-0.1753145828843116,-12.819432258605955,L,False,True,0,L,0,,0.378,RightResponse,incorrect,True,8.0
4,4,274.5146666666667,4525,274.454,274.459,274.467,0.5627196265358522,60.89067389507704,0.2134142518043518,35.292274475097656,0.3328377231955528,42.89275360107422,0.5206800699234009,49.619850158691406,0.60454261302948,47.15184020996094,L,False,True,0,R,50,,0.266,RightResponse,correct,True,7.0
5,5,281.28766666666667,969,281.174,281.178,281.182,0.2462252296627411,30.793240913367757,0.2286074161529541,28.56436920166016,0.1295790523290634,17.34650230407715,-0.0914631783962249,-11.502195358276367,-0.0508158893790096,-4.642724514007568,L,False,True,0,L,100,,0.257,LeftResponse,correct,True,11.0
6,6,286.22566666666665,10514,286.168,286.172,286.18,0.3277260826269267,30.904727586650875,0.1067055463790893,14.966572761535645,0.1524468325078487,21.94317054748535,-0.3098682165145874,-27.03893280029297,-0.2540638148784637,-23.027633666992188,L,False,True,0,L,50,,0.356,LeftResponse,correct,True,6.0
7,7,289.7936666666667,10520,289.732,289.738,289.745,0.5534520450333177,55.74389052471633,0.2616733610630035,30.02411651611328,0.3430060595273971,35.016700744628906,-0.4876845479011535,-46.96736907958984,-0.5181612968444824,-51.4015998840332,L,False,True,0,L,50,,0.348,RightResponse,incorrect,True,5.0
8,8,293.79066666666665,4549,293.58,293.587,293.592,0.4868567368619128,46.83483650747325,0.2718348801136017,31.109867095947266,0.2769456729292869,27.509828567504883,0.4039000868797302,35.00968551635742,0.3276975154876709,37.50372314453125,L,False,True,0,R,200,,0.285,LeftResponse,incorrect,True,8.0
9,9,298.37466666666666,4564,297.962,297.969,297.976,0.5734096850763042,48.81691439152477,0.1168632507324218,12.8870210647583,0.2286702585406601,18.478450775146484,0.5613747835159302,47.08519744873047,0.6376573741436005,61.01766586303711,L,False,True,0,L,400,,0.247,RightResponse,incorrect,True,11.0
10,10,302.07166666666666,1014,301.995,302.004,302.01,0.9184777455104562,86.65676512814294,0.9170715510845184,86.18987274169922,0.7266542017459869,77.00825500488281,-0.0508049130439758,-8.98336124420166,-0.0457330048084259,3.949648857116699,L,False,True,0,R,50,,0.361,RightResponse,correct,True,8.0
11,12,309.5946666666667,7451,309.181,309.187,309.191,0.4515806480377984,48.20042148150328,-0.3733259439468384,-40.402679443359375,-0.2998111525084823,-32.3832893371582,-0.2540724724531173,-26.28505516052246,-0.1930860877037048,-18.615806579589844,L,False,True,0,L,400,,0.369,RightResponse,incorrect,True,14.0
12,13,313.55466666666666,1039,313.495,313.501,313.505,0.3819435226444798,37.58685217593669,0.3201305568218231,28.98749351501465,0.2871087118983269,23.19049453735352,-0.208320140838623,-23.926902770996094,-0.2159146070480346,-20.898462295532227,L,False,True,0,L,50,,0.343,LeftResponse,correct,True,7.0
13,14,318.1426666666667,1051,318.133,318.139,318.143,0.4420542334665052,43.898825647036745,0.2692807912826538,26.905101776123047,0.3074336526915431,23.99886131286621,-0.3505706787109375,-34.687496185302734,-0.2489418983459472,-22.538558959960938,L,False,True,0,L,0,,0.399,LeftResponse,correct,True,14.0
14,15,321.5436666666667,7474,321.533,321.54,321.545,0.6513987194578931,68.71284664415222,-0.5715513229370117,-61.195838928222656,-0.5640071332454681,-62.56766128540039,-0.3124890029430389,-31.24939346313477,-0.4344145357608795,-29.746883392333984,L,False,True,0,R,0,,0.389,RightResponse,correct,True,13.0
15,16,325.2246666666667,1065,325.014,325.021,325.026,0.6395215709587344,65.75131974084913,0.4547305405139923,47.991432189941406,0.4675025641918182,50.07630157470703,-0.4496754109859466,-44.94506072998047,-0.315041720867157,-39.0107536315918,L,False,True,0,L,200,,0.33,LeftResponse,correct,True,11.0
16,17,329.3706666666667,10582,329.361,329.366,329.374,0.3754653564489991,37.373645337960944,0.1041527986526489,23.509939193725582,0.0508158430457115,20.74209976196289,-0.3607304096221924,-29.052919387817383,-0.2337313890457153,-18.82349395751953,L,False,True,0,R,0,,0.278,RightResponse,correct,True,12.0
17,18,333.29266666666666,7491,333.178,333.186,333.191,0.5817421348858319,58.05931842193391,-0.5360015630722046,-52.53691482543945,-0.3709476217627525,-41.46022033691406,-0.2261111140251159,-24.713499069213867,-0.266777366399765,-22.65879821777344,L,False,True,0,R,100,,0.257,LeftResponse,incorrect,True,10.0
18,19,338.42266666666666,7501,338.209,338.214,338.219,0.3019544191890687,35.78214732315007,-0.2972033619880676,-34.24635696411133,-0.2083417028188705,-23.074609756469727,-0.0533538460731506,-10.370588302612305,-0.0482749640941619,-6.53675651550293,L,False,True,0,L,200,,0.375,LeftResponse,correct,True,10.0
19,20,341.79066666666665,7508,341.581,341.588,341.594,1.021728492558495,107.77027605707774,-0.9934258162975312,-104.30917358398438,-0.8356548547744751,-90.4919891357422,-0.2388184666633606,-27.09296417236328,-0.3658730834722519,-36.79508590698242,L,False,True,0,R,200,,0.358,RightResponse,correct,True,9.0
20,21,345.89566666666667,1110,345.484,345.491,345.495,0.5266413204861433,53.984026277360336,0.3607907146215439,34.323734283447266,0.4776650965213775,42.08429718017578,-0.3836419433355331,-41.66720962524414,-0.2870885133743286,-33.558860778808594,L,False,True,0,R,400,,0.363,LeftResponse,incorrect,True,17.0
21,22,350.53366666666665,10619,350.528,350.53,350.539,0.3270908934291872,35.835624904174445,0.1117940694093704,26.16987991333008,0.0762201845645904,29.97960662841797,-0.3073931336402893,-24.481204986572266,-0.3582365959882736,-28.525447845458984,L,False,True,0,L,0,,0.234,RightResponse,incorrect,True,11.0
22,23,355.4256666666667,1129,355.316,355.322,355.329,0.6988098231235688,74.3464973654095,0.6224858909845352,71.53410339355469,0.6884642243385315,63.395503997802734,-0.3175633549690246,-20.25521469116211,-0.3683703541755676,-33.32784652709961,L,False,True,0,R,100,,0.273,RightResponse,correct,True,13.0
23,24,358.9016666666667,1139,358.492,358.501,358.507,0.9473745156181748,94.20507941357128,0.8282788693904877,85.46187591552734,0.9679859578609468,91.2768325805664,0.4598614871501922,39.63413619995117,0.3633230999112129,35.200584411621094,L,False,True,0,L,400,,0.336,RightResponse,incorrect,True,20.0
24,25,362.4406666666667,4676,362.43,362.44,362.45,1.128502026316682,94.01496218485168,0.1371572613716125,31.89125633239746,0.2006707191467285,29.421566009521484,1.120136022567749,88.44071960449219,1.2343565225601196,104.83911895751952,L,False,True,0,R,0,,0.221,LeftResponse,incorrect,True,14.0
25,26,366.1256666666667,1162,366.065,366.071,366.075,0.3788908976823426,37.00144790350022,0.3657076358795166,36.17861175537109,0.350601851940155,29.563600540161133,-0.0990769267082214,-7.75984525680542,-0.0990709662437439,-8.128927230834961,L,False,True,0,R,50,,0.372,LeftResponse,incorrect,True,6.0
26,27,369.62666666666667,7568,369.217,369.225,369.232,1.040439262266183,102.7831525948708,-0.9720782041549684,-98.22198486328124,-0.8051185607910156,-86.1015853881836,-0.3709148466587066,-30.27900505065918,-0.4446031153202057,-47.46355438232422,L,False,True,0,R,400,,0.286,LeftResponse,incorrect,True,23.0
27,28,375.1186666666667,7579,374.906,374.914,374.921,0.7505199175299428,68.4976995673846,-0.7315483689308167,-67.79737091064453,-0.5970797538757324,-62.98799133300781,-0.1676816344261169,-9.769920349121094,-0.0558951795101165,-14.713018417358398,L,False,True,0,R,200,,0.389,LeftResponse,incorrect,True,8.0
28,29,379.3106666666667,7586,379.247,379.254,379.257,0.4161808278050268,46.90718184434135,-0.3353752493858337,-31.34310913085937,-0.2108824402093887,-25.43059730529785,-0.2464344203472137,-34.8983268737793,-0.284553974866867,-34.22953414916992,L,False,True,0,L,50,,0.306,RightResponse,incorrect,True,9.0
29,30,384.3776666666667,10672,384.17,384.173,384.178,0.2665825023810684,32.42900309231571,0.0355701446533203,9.239047050476074,0.1372028179466724,21.31955909729004,-0.2641987800598144,-31.08504867553711,-0.1803727746009826,-20.57778549194336,L,False,True,0,L,200,,0.332,RightResponse,incorrect,True,11.0
30,31,388.4866666666667,7605,388.373,388.382,388.387,1.2192624507210486,119.886729410677,-1.055888295173645,-104.72346496582033,-0.9296616911888124,-99.59110260009766,-0.6096727252006531,-58.35943603515625,-0.63008102029562,-66.47297668457031,L,False,True,0,L,100,,0.282,LeftResponse,correct,True,12.0
31,32,391.8346666666667,7611,391.82,391.828,391.833,0.5355205288928824,54.14069217018336,-0.4568151235580444,-43.37223052978516,-0.3352659940719604,-40.98394012451172,-0.2794676721096039,-32.404693603515625,-0.3811151310801506,-34.36979293823242,L,False,True,0,L,0,,0.367,LeftResponse,correct,True,17.0
32,33,395.47766666666666,7615,395.366,395.374,395.38,0.8974944537003845,92.099798951522,-0.8149584531784058,-84.24057006835938,-0.7138017117977142,-73.4588394165039,-0.375950813293457,-37.22766876220703,-0.2362762093544006,-30.67242431640625,L,False,True,0,L,100,,0.37,LeftResponse,correct,True,11.0
33,34,399.4406666666667,1240,399.032,399.039,399.043,0.4657091708801351,45.86152638356611,0.2565101385116577,25.097410202026367,0.4242948293685913,36.49403381347656,-0.388699859380722,-38.3848876953125,-0.2819755673408508,-28.24380111694336,L,False,True,0,R,400,,0.365,RightResponse,correct,True,26.0
34,35,403.3086666666667,7631,403.099,403.104,403.11,0.4761250373807782,48.83394344614378,-0.4493165016174316,-45.27879333496094,-0.4495429992675781,-40.70716094970703,-0.1575110554695129,-18.291662216186523,-0.1067005395889282,-8.314327239990234,L,False,True,0,L,200,,0.301,LeftResponse,correct,True,14.0
35,36,407.0686666666667,1256,406.959,406.963,406.969,0.5326979545493621,58.32574431801956,0.3047244548797607,31.94930648803711,0.4190793633460998,48.766075134277344,-0.436932623386383,-48.79686737060547,-0.3581889867782593,-34.480003356933594,L,False,True,0,R,100,,0.232,RightResponse,correct,True,10.0
36,37,410.6616666666667,4790,410.253,410.258,410.271,0.92035382938894,76.89707796517311,0.0355360507965087,44.775390625,0.1422302722930908,55.55951690673828,0.9196675270795822,62.516597747802734,0.658004030585289,38.93810272216797,L,False,True,0,L,400,,0.234,LeftResponse,correct,True,25.0
37,38,416.89366666666666,7647,416.779,416.785,416.791,0.4563453947987529,48.3062331760519,-0.4519031047821045,-48.306095123291016,-0.464800477027893,-45.32596206665039,-0.0635193139314651,-0.1154885217547416,0.0152441561222076,3.5800375938415527,L,False,True,0,R,100,,0.347,RightResponse,correct,True,9.0
38,39,421.2816666666667,7656,421.072,421.078,421.084,0.5676769047242477,60.62866611514689,-0.5407463312149048,-57.14447784423828,-0.4877054095268249,-48.97894287109375,-0.1727728955447673,-20.25694465637207,-0.1524459645152092,-12.010937690734863,L,False,True,0,R,200,,0.372,LeftResponse,incorrect,True,13.0
39,41,485.91066666666666,1512,485.498,485.504,485.509,0.4396598463180033,44.09941338071408,0.3911675214767456,37.8466682434082,0.3505678176879883,38.82149505615234,-0.2007205784320831,-22.635988235473636,-0.4268228709697723,-45.731201171875,L,False,True,1,L,400,,0.377,LeftResponse,correct,True,24.0
40,42,489.6406666666667,7878,489.529,489.535,489.54,0.4354550365494024,49.69280830756127,-0.4240309000015259,-48.21941375732422,-0.4395181536674499,-49.91102600097656,-0.0990902855992317,-12.010967254638672,-0.1067090630531311,-10.763304710388184,L,False,True,1,L,100,,0.392,LeftResponse,correct,True,8.0
41,43,493.8876666666667,10931,493.683,493.686,493.694,0.309505610899389,29.96381407383488,0.0533380508422851,13.277010917663574,0.0,9.908062934875488,-0.3048750162124634,-26.861703872680664,-0.2642208337783813,-28.47777366638184,L,False,True,1,L,200,,0.392,RightResponse,incorrect,True,16.0
42,44,499.43666666666667,7886,499.324,499.329,499.332,0.2413432959297789,28.73470641280141,-0.1930667757987976,-19.81463432312012,-0.205768346786499,-21.685199737548828,-0.1448164582252502,-20.8101806640625,-0.1524364352226257,-16.25984001159668,L,False,True,1,R,100,,0.33,LeftResponse,incorrect,True,7.0
43,45,504.3376666666667,7894,504.125,504.131,504.134,0.2731125275221467,31.44593003311775,-0.2564244270324707,-27.46535301208496,-0.1523643732070922,-17.10625457763672,-0.094005137681961,-15.313422203063965,-0.1117906868457794,-15.521356582641602,L,False,True,1,L,200,,0.382,LeftResponse,correct,True,19.0
44,46,509.8786666666667,7901,509.862,509.868,509.873,0.2819608621048345,30.77985048192604,-0.2819150686264038,-30.777631759643555,-0.2286123633384704,-22.67667388916016,0.0050815194845199,0.3695659041404724,-0.0406527183949947,1.917145013809204,L,False,True,1,R,0,,0.273,RightResponse,correct,True,16.0
45,47,513.8676666666667,7909,513.457,513.462,513.465,0.3185830950071666,36.399686537002445,-0.2692917585372925,-29.007566452026367,-0.1930996221490204,-21.92002868652344,-0.1702267229557037,-21.98859405517578,-0.1549877449870109,-13.812642097473145,L,False,True,1,R,400,,0.33,RightResponse,correct,True,23.0
46,49,522.5316666666666,1578,522.121,522.128,522.132,0.4095016687364591,44.26924291549245,0.3810778558254242,41.11043548583984,0.3099727965891361,32.683349609375,-0.1499042510986328,-16.422483444213867,-0.2439111620187759,-25.08408737182617,L,False,True,1,L,400,,0.391,LeftResponse,correct,True,22.0
47,50,529.4926666666667,7927,529.077,529.083,529.09,0.5240163287588786,49.566066539085874,-0.5232704877853394,-49.48720932006836,-0.3785094022750854,-31.80094337463379,-0.0279483348131179,-2.794828414916992,0.0838369727134704,7.298239707946777,L,False,True,1,L,400,,0.264,LeftResponse,correct,True,21.0
48,51,533.1766666666666,7933,533.063,533.069,533.072,0.3092698583880771,36.85844009507414,-0.2920944690704345,-31.63365936279297,-0.2642094492912292,-31.94066047668457,-0.1016300469636917,-18.91708755493164,-0.1194168701767921,-20.095314025878903,L,False,True,1,R,100,,0.378,LeftResponse,incorrect,True,9.0
49,52,537.0326666666667,7936,536.819,536.825,536.829,0.3898752040586953,40.24086343525399,-0.342932641506195,-33.96954345703125,-0.3074078857898712,-32.4036865234375,-0.1854720413684845,-21.57306671142578,-0.2032576203346252,-21.295799255371094,L,False,True,1,R,200,,0.276,LeftResponse,incorrect,True,18.0
50,53,541.0706666666666,7941,541.057,541.064,541.07,0.6161986100721819,59.46518050432893,-0.5868211388587952,-58.56626129150391,-0.4547280371189117,-47.80622100830078,-0.1879938244819641,-10.30052089691162,-0.2515375670045614,-23.1672420501709,L,False,True,1,R,0,,0.296,RightResponse,correct,True,15.0
51,54,544.3516666666667,1613,544.339,544.346,544.352,0.5561198192788656,54.18678806657741,0.5080704689025879,52.58608627319336,0.647894561290741,62.75718688964844,0.2261275127530098,13.07331371307373,0.2871090844273567,30.050617218017575,L,False,True,1,R,0,,0.306,RightResponse,correct,True,14.0
52,55,549.2266666666667,7950,549.166,549.17,549.175,0.2670714421299013,29.317200723000976,-0.2667691707611084,-29.19452476501465,-0.2439132630825042,-28.73370933532715,0.0127029418945312,2.679175615310669,0.0254074037075042,4.735017776489258,L,False,True,1,R,50,,0.343,RightResponse,correct,True,12.0
53,56,552.7786666666667,1629,552.567,552.577,552.583,1.3442551794411637,126.88589078446236,1.211830198764801,117.56256103515624,1.1534816026687622,113.91734313964844,0.5817985534667969,47.73964309692383,0.6199410557746887,58.92201614379883,L,False,True,1,L,200,,0.254,LeftResponse,correct,True,21.0
54,57,556.0006666666667,1637,555.891,555.896,555.901,0.3438652830167301,36.89101430866469,0.3353108167648315,35.3554801940918,0.4852564483880996,53.16813659667969,0.0762232840061187,10.53266143798828,0.0736827999353408,14.020543098449709,L,False,True,1,L,100,,0.236,LeftResponse,correct,True,12.0
55,58,560.8266666666667,7968,560.615,560.619,560.623,0.2809700299289447,32.91269598742204,-0.2718143463134765,-32.07732009887695,-0.2870835065841675,-33.327476501464844,-0.0711415410041809,-7.36824893951416,-0.1244988571852445,-10.23246955871582,L,False,True,1,R,200,,0.392,RightResponse,correct,True,20.0
56,59,564.5356666666667,1659,564.472,564.473,564.482,0.3029917773015326,34.36897544373874,0.2845230102539062,21.176990509033203,0.2108854316174984,14.644206047058104,-0.104166567325592,-27.069568634033203,-0.1346620731055736,-23.07501792907715,L,False,True,1,R,50,,0.318,LeftResponse,incorrect,True,11.0
57,60,568.2246666666666,1665,568.214,568.221,568.228,0.9244547746924572,105.25178320071674,0.9018329083919524,103.92598724365234,0.9476407393813132,103.95779418945312,0.2032585442066192,16.653139114379883,0.282023623585701,20.69562530517578,L,False,True,1,R,0,,0.266,LeftResponse,incorrect,True,13.0
58,61,571.6426666666666,7979,571.232,571.237,571.242,0.3848213361383414,46.45041636123244,-0.3149997591972351,-39.00556945800781,-0.4141428982838988,-40.09780883789063,0.221048891544342,25.2231388092041,0.1143331229686737,9.377677917480469,L,False,True,1,R,400,,0.228,RightResponse,correct,True,20.0
59,62,576.7596666666667,7983,576.543,576.548,576.553,0.4361752835023873,45.369765202060215,-0.3760144412517547,-40.83487701416016,-0.1753058135509491,-20.094362258911133,-0.2210475467145443,-19.77190971374512,-0.1981802694499492,-17.092435836791992,L,False,True,1,R,200,,0.211,LeftResponse,incorrect,True,19.0
60,63,580.0696666666666,7987,579.855,579.86,579.866,0.4008327525554903,44.56460163713297,-0.3454744815826416,-38.49625015258789,-0.2439062893390655,-23.628582000732425,0.203259140253067,22.450889587402344,0.1422837786376476,12.611534118652344,L,False,True,1,R,200,,0.335,RightResponse,correct,True,22.0
61,64,583.5376666666667,5081,583.126,583.133,583.142,0.8289117570460164,73.22678624968496,0.2159157395362854,23.208887100219727,0.175305962562561,21.29581642150879,0.8002968789078295,69.45149230957031,0.7241156101226807,63.75029754638672,L,False,True,1,L,400,,0.202,LeftResponse,correct,True,19.0
62,65,587.5796666666666,1722,587.365,587.367,587.37,0.1263674463497194,16.858965073872273,0.1092440783977508,15.19714641571045,0.0101628303527832,-0.9007933139801024,0.0635174214839935,7.298728942871094,-0.2158788442611694,-26.7368106842041,L,False,True,1,L,200,,0.313,LeftResponse,correct,True,21.0
63,66,593.0506666666666,11058,593.032,593.037,593.042,0.4279123672151113,44.33771718486346,0.0304822921752929,-2.3322765827178955,0.096546471118927,8.384225845336914,-0.4268252849578857,-44.27633285522461,-0.1753102838993072,-18.47797393798828,L,False,True,1,L,0,,0.374,RightResponse,incorrect,True,16.0
64,67,598.4676666666667,8014,598.354,598.361,598.368,0.698356659928736,76.1663699542422,-0.698352038860321,-75.92929077148438,-0.7010005116462708,-77.97541046142578,-0.0025405287742614,6.0048909187316895,-0.1016308218240737,-4.019051551818848,L,False,True,1,R,100,,0.35,RightResponse,correct,True,11.0
65,68,602.5976666666667,11076,602.189,602.193,602.199,0.3354059546400011,31.73876665891515,-0.0050797462463378,0.4618002474308014,0.0508086085319519,11.84787368774414,-0.3353674858808517,-31.73540687561035,-0.2235782742500305,-28.593982696533203,L,False,True,1,R,400,,0.336,LeftResponse,incorrect,True,18.0
66,69,605.6986666666667,1763,605.635,605.643,605.648,0.6877976200083423,62.74912460002416,0.5639089941978455,53.02104949951172,0.5690983086824417,55.29374694824219,0.3937920928001404,33.5592155456543,0.4547907076776027,38.61919403076172,L,False,True,1,L,50,,0.243,LeftResponse,correct,True,14.0
67,71,613.0976666666667,1783,613.086,613.091,613.096,0.4502413817516451,43.39607021330542,0.34039306640625,35.6560173034668,0.3480605781078338,37.27750396728516,-0.2947030067443847,-24.735952377319336,-0.2312119826674461,-26.9323844909668,L,False,True,1,L,0,,0.212,LeftResponse,correct,True,19.0
68,73,623.3936666666667,11108,623.385,623.389,623.396,0.3788489286074236,42.59371529382102,0.063515156507492,12.934082984924316,-0.0228660106658935,16.83806800842285,-0.37348672747612,-40.58243560791016,-0.4217577278614044,-47.85783004760742,L,False,True,1,L,0,,0.234,LeftResponse,correct,True,17.0
69,74,626.6696666666667,11114,626.555,626.559,626.563,0.3073349747688402,37.67807887757841,0.2108617424964904,25.243165969848636,0.1651427447795868,20.2790470123291,-0.2235891595482826,-27.97177505493164,-0.2032549977302551,-18.477718353271484,L,False,True,1,R,100,,0.212,LeftResponse,incorrect,True,9.0
70,75,630.7546666666667,11122,630.695,630.698,630.706,0.2752726777115752,28.547230930867187,0.0431889295578002,20.83271789550781,0.116861343383789,23.326398849487305,-0.2718635015189647,-19.517742156982425,-0.1448197066783905,-15.937061309814451,L,False,True,1,R,50,,0.316,RightResponse,correct,True,13.0
71,76,634.0636666666667,1841,634.006,634.011,634.018,0.4731194930381657,48.04546347705084,0.4319208785891533,41.89845275878906,0.536102905869484,38.31964111328125,-0.1930968910455703,-23.513532638549805,-0.1626072973012924,-13.142457008361816,L,False,True,1,L,50,,0.368,LeftResponse,correct,True,12.0
72,77,637.7776666666666,11138,637.721,637.723,637.731,0.2780708637950201,30.183911672876658,0.094005674123764,21.54979705810547,0.0584374666213989,13.6738920211792,-0.2616989463567734,-21.13468170166016,-0.2693125009536743,-21.272260665893555,L,False,True,1,L,50,,0.362,LeftResponse,correct,True,11.0
73,79,651.2136666666667,11160,651.155,651.16,651.166,0.3477171843993427,31.407958288117214,0.1625957190990448,14.342621803283691,0.1295802933163941,9.239246368408203,-0.307359516620636,-27.94188690185547,-0.2057899236679077,-22.611591339111328,L,False,True,1,L,50,,0.226,LeftResponse,correct,True,10.0
74,81,762.3296666666666,8231,762.265,762.27,762.276,0.3080869519871305,30.781911166292517,-0.29716557264328,-30.686222076416016,-0.315005362033844,-31.223779678344727,-0.0813030898571014,-2.425248384475708,-0.142284344881773,-4.250056266784668,L,False,True,2,L,50,,0.38,RightResponse,incorrect,True,9.0
75,82,765.8806666666667,2034,765.675,765.679,765.683,0.2753275216970058,29.252422530925813,0.1828950047492981,19.90601921081543,0.2312046438455581,24.136857986450195,-0.2058024816215038,-21.434892654418945,-0.139727234840393,-15.104374885559082,L,False,True,2,R,200,,0.217,RightResponse,correct,True,20.0
76,83,769.6616666666666,2043,769.65,769.655,769.66,0.3718220233449519,41.72795291906623,0.2870842218399048,33.18912887573242,0.3811166360974312,41.16067886352539,-0.2362927561625838,-25.29236602783203,-0.1092541441321373,-11.595260620117188,L,False,True,2,R,0,,0.3,LeftResponse,incorrect,True,16.0
77,84,773.2416666666667,11277,772.834,772.837,772.842,0.3717524000390914,39.04147529337939,0.2361911535263061,24.1268367767334,0.2998012453317642,37.00167465209961,-0.2870776653289795,-30.69417762756348,-0.152447497472167,-18.50157165527344,L,False,True,2,R,400,,0.308,RightResponse,correct,True,21.0
78,85,776.8306666666667,11284,776.42,776.424,776.43,0.5341088516008209,56.70089717506267,-0.3072311878204345,-33.907840728759766,-0.2185080051422119,-27.99489021301269,-0.4368996024131775,-45.44502258300781,-0.4115699231624603,-41.52706527709961,L,False,True,2,L,400,,0.212,LeftResponse,correct,True,20.0
79,86,780.5236666666667,11291,780.514,780.519,780.526,0.3686296263823031,30.456429944906635,0.0152390003204345,7.342668533325195,0.0685982108116149,7.806901454925537,-0.3683145046234131,-29.558067321777344,-0.2413446307182312,-17.9220027923584,L,False,True,2,R,0,,0.356,RightResponse,correct,True,19.0
80,87,785.5526666666667,8266,785.442,785.448,785.454,0.4829402163086911,54.784205149149344,-0.4698247909545898,-53.53826141357422,-0.5486878156661987,-58.58778762817383,-0.1117851436138153,-11.617387771606444,-0.096547782421112,-7.668418884277344,L,False,True,2,L,100,,0.373,LeftResponse,correct,True,12.0
81,88,788.6716666666666,11300,788.611,788.616,788.623,0.4403870983361485,41.40152893976241,0.2793354988098144,20.430816650390625,0.1854525804519653,21.94032096862793,-0.3404592126607895,-36.009281158447266,-0.2235896214842796,-23.28288078308105,L,False,True,2,R,50,,0.343,RightResponse,correct,True,12.0
82,89,792.5476666666667,2093,792.136,792.144,792.148,0.3510576076032296,38.34851372614976,0.3097920417785644,23.29272079467773,0.2184968292713165,20.533239364624023,-0.1651373207569122,-30.464038848876957,-0.309958815574646,-27.62361717224121,L,False,True,2,L,400,,0.21,LeftResponse,correct,True,19.0
83,90,796.9986666666666,2099,796.788,796.793,796.797,0.4014788808349174,45.53773495057894,0.2641745209693908,29.419551849365234,0.37848562002182,37.54878616333008,-0.3023195564746856,-34.75881576538086,-0.2896358072757721,-31.06546211242676,L,False,True,2,R,200,,0.331,RightResponse,correct,True,19.0
84,91,800.2916666666666,2108,800.283,800.289,800.294,0.3623582572212219,41.85846661292673,0.322542667388916,36.064334869384766,0.3759989142417907,38.27007293701172,-0.1651355028152465,-21.248411178588867,-0.205803845077753,-26.401098251342773,L,False,True,2,L,0,,0.316,LeftResponse,correct,True,18.0
85,92,804.0756666666666,11315,803.85,803.856,803.86,0.3322114089654193,38.81694978143257,0.0889018177986145,11.522590637207031,0.0990804433822631,11.963621139526367,-0.3200951218605041,-37.06731033325195,-0.2895806431770324,-30.228086471557617,L,False,True,2,L,200,,0.28,LeftResponse,correct,True,18.0
86,93,808.3096666666667,2122,808.102,808.105,808.109,0.1473252773284912,18.956156229880467,0.1473252773284912,18.88904190063477,0.1829355955123901,22.659076690673828,0.0,-1.5937236547470093,0.0838304162025451,9.122015953063965,L,False,True,2,L,200,,0.237,LeftResponse,correct,True,17.0
87,94,811.4906666666667,2130,811.374,811.383,811.388,0.8391573680112663,79.02749056742044,0.6934858858585358,66.71898651123047,0.7240915410220623,72.4105224609375,0.4725065231323242,42.35470581054688,0.4877935945987701,49.74958801269531,L,False,True,2,R,100,,0.221,RightResponse,correct,True,11.0
88,95,814.9876666666667,2137,814.876,814.884,814.887,0.3989555422846298,37.93605266914295,0.2896060347557068,23.09514045715332,0.3150272369384765,30.787071228027344,-0.2743972837924957,-30.095823287963867,-0.1981687843799591,-23.604637145996094,L,False,True,2,R,100,,0.383,RightResponse,correct,True,10.0
89,96,822.5616666666667,8321,822.549,822.555,822.559,0.3841146084693974,41.85896141939544,-0.3682509660720825,-38.90256881713867,-0.3225882649421692,-36.02264404296875,-0.1092486083507537,-15.451951026916504,-0.1981796324253082,-20.326101303100582,L,False,True,2,L,0,,0.358,LeftResponse,correct,True,17.0
90,97,826.0086666666667,8326,825.597,825.604,825.61,0.5351480546580849,53.87787291646666,-0.485027551651001,-50.83353042602539,-0.4928324818611145,-50.57720947265625,-0.2261232286691665,-17.854337692260742,-0.1829271912574768,-9.469878196716309,L,False,True,2,R,400,,0.243,RightResponse,correct,True,18.0
91,98,829.3146666666667,8332,829.302,829.307,829.31,0.2617948282595575,31.001235688041813,-0.2412633895874023,-27.31222343444824,-0.1905214190483093,-23.41679000854492,-0.1016292721033096,-14.666937828063965,-0.1422788798809051,-18.223731994628903,L,False,True,2,R,0,,0.366,RightResponse,correct,True,16.0
92,99,832.4786666666666,8337,832.466,832.472,832.476,0.4442540613773164,46.0857521782431,-0.3301465511322021,-35.71533966064453,-0.2108473181724548,-26.07296562194824,-0.2972623854875564,-29.12578010559082,-0.3480876535177231,-36.28707504272461,L,False,True,2,R,0,,0.326,LeftResponse,incorrect,True,15.0
93,101,839.7976666666667,8345,839.387,839.393,839.397,0.441890242351432,45.010814727925805,-0.3072987794876098,-33.63846969604492,-0.2464246153831482,-33.4188346862793,-0.3175444006919861,-29.90696907043457,-0.2134053111076355,-31.479930877685547,L,False,True,2,R,400,,0.339,RightResponse,correct,True,17.0
94,102,846.4046666666667,8355,845.997,846.0,846.001,0.1420894612075873,21.144876868237507,-0.1244344711303711,-14.89057731628418,-0.1270128488540649,-18.890071868896484,-0.0685964822769165,-15.012545585632324,-0.0533559322357177,-12.172507286071776,L,False,True,2,L,400,,0.396,LeftResponse,correct,True,16.0
95,103,851.0226666666666,11381,850.911,850.915,850.922,0.3398441629523595,39.581234247766766,0.1066794395446777,19.673784255981445,0.1295636296272277,25.08176040649414,-0.3226663172245025,-34.345542907714844,-0.2540767639875412,-30.881855010986328,L,False,True,2,L,100,,0.23,RightResponse,incorrect,True,8.0
96,104,854.3906666666667,11388,854.316,854.322,854.329,0.7262396462648748,76.62719936173332,0.1981197595596313,12.238146781921388,0.1448171436786651,15.267139434814451,-0.6986934840679169,-75.64360809326172,-0.5310223400592804,-53.772193908691406,L,False,True,2,L,50,,0.3,RightResponse,incorrect,True,11.0
97,105,858.0626666666667,11394,857.954,857.958,857.965,0.3734697609067769,37.20542008019173,0.0965266227722168,18.68222999572754,0.0635164380073547,12.287674903869627,-0.3607800900936126,-32.17479705810547,-0.3404354155063629,-33.95136642456055,L,False,True,2,L,100,,0.204,LeftResponse,correct,True,11.0
98,106,861.1886666666667,11400,861.127,861.131,861.141,0.5507138840510036,53.715980494922015,-0.193026065826416,-33.87025833129883,-0.1676730513572693,-29.399843215942383,-0.5157777816057205,-41.691871643066406,-0.4395494973286986,-30.511693954467773,L,False,True,2,R,50,,0.389,RightResponse,correct,True,14.0
99,107,864.2446666666667,8390,864.132,864.137,864.141,0.2941845910402386,34.77990115493169,-0.2641092538833618,-31.85915184020996,-0.2794476747512817,-32.10172271728516,-0.1295796111226081,-13.951199531555176,-0.1829336136579513,-18.893909454345703,L,False,True,2,L,100,,0.295,RightResponse,incorrect,True,10.0
100,108,867.1056666666667,2254,867.045,867.053,867.058,0.7144768572383849,71.68731723842667,0.7035467028617859,68.57905578613281,0.6580423004925251,64.65013885498047,-0.1244958490133285,-20.8802433013916,-0.0431933254003524,0.5081579089164734,L,False,True,2,R,50,,0.269,RightResponse,correct,True,13.0
101,109,871.3936666666667,8401,871.384,871.39,871.395,0.5463702710029785,62.92403271973842,-0.5435037612915039,-62.15365219116211,-0.530912458896637,-56.32426452636719,-0.0558939576148986,-9.816181182861328,-0.1575275808572769,-13.650884628295898,L,False,True,2,L,0,,0.34,LeftResponse,correct,True,18.0
102,110,874.5616666666667,8404,874.497,874.504,874.51,0.6129850224493146,59.74287229077958,-0.5612574219703674,-57.48728942871094,-0.4623076319694519,-53.22842788696289,-0.2464563734829425,-16.26106834411621,-0.4395550042390823,-35.1782112121582,L,False,True,2,R,50,,0.285,RightResponse,correct,True,12.0
103,111,879.3746666666667,8411,879.314,879.322,879.327,0.7476217473292958,77.25078212376911,-0.741361141204834,-76.18744659423828,-0.665457546710968,-77.88175964355469,-0.0965501703321933,-12.773265838623049,-0.1270395368337631,-17.80864715576172,L,False,True,2,L,50,,0.272,RightResponse,incorrect,True,11.0
104,112,882.6926666666667,8422,882.481,882.489,882.496,0.8236383794913857,76.92314858279751,-0.812555730342865,-76.86719512939453,-0.7366209626197815,-74.93465423583984,-0.1346601843833923,-2.93344521522522,-0.1499065072275698,-13.327614784240724,L,False,True,2,R,200,,0.28,RightResponse,correct,True,16.0
105,113,888.4306666666666,8432,888.214,888.22,888.223,0.3205803458665293,34.11185224196497,-0.2539616823196411,-26.5732364654541,-0.276890218257904,-24.96364974975586,-0.1956405430100858,-21.388818740844727,-0.1727704554796219,-18.29331970214844,L,False,True,2,L,200,,0.39,RightResponse,incorrect,True,15.0
106,114,893.0556666666666,8441,893.041,893.048,893.053,0.4593893763566074,45.1970680770757,-0.4367998838424682,-43.494571685791016,-0.3962516784667969,-43.01966857910156,-0.1422830298542976,-12.288091659545898,-0.1194171905517578,-14.898290634155272,L,False,True,2,L,0,,0.281,RightResponse,incorrect,True,17.0
107,115,898.3886666666667,8450,898.321,898.326,898.33,0.3733583983327626,41.58533004708262,-0.2970894575119018,-34.76422119140625,-0.2845067977905273,-27.61940193176269,-0.226129051297903,-22.82079315185547,-0.0558971017599105,-8.93891716003418,L,False,True,2,L,50,,0.383,LeftResponse,correct,True,14.0
108,116,901.3616666666667,5521,901.245,901.252,901.26,0.6384812137547283,56.85144596323944,-0.1422362327575683,-22.095705032348636,-0.1143327355384826,-23.21255111694336,0.6224364340305328,52.38193130493164,0.6961547583341599,63.40245056152344,L,False,True,2,R,100,,0.215,RightResponse,correct,True,13.0
109,117,905.4296666666667,2344,905.217,905.226,905.23,0.3637602240441369,36.99372757943368,0.3201113045215606,26.376192092895508,0.317597534507513,28.50289726257324,-0.1727722585201263,-25.93901252746582,-0.0711421072483062,-11.664515495300291,L,False,True,2,L,200,,0.357,LeftResponse,correct,True,18.0
110,118,909.0346666666667,2352,908.624,908.63,908.635,0.5158340792530757,51.34461150329402,0.3759762644767761,41.73199462890625,0.4471775740385055,51.046630859375,-0.3531665978953242,-29.911699295043945,-0.2464545257389545,-22.75135040283203,L,False,True,2,R,400,,0.324,RightResponse,correct,True,15.0
111,119,912.7606666666667,11509,912.55,912.556,912.562,0.6379854998498534,65.21853122655554,0.170200228691101,17.251056671142578,0.1422842422034591,20.18775177001953,-0.614863708615303,-62.89561080932617,-0.2997827529907226,-40.486454010009766,L,False,True,2,R,200,,0.333,LeftResponse,incorrect,True,17.0
112,120,957.0386666666667,8555,956.625,956.631,956.636,0.4592775905572477,48.62233180588172,-0.4420814588665962,-45.50157165527344,-0.3709477633237839,-36.97927474975586,-0.1244985498487949,-17.138790130615234,-0.1651479452848434,-17.207704544067383,L,False,True,3,L,400,,0.307,LeftResponse,correct,True,14.0
113,121,962.0386666666667,2460,961.63,961.633,961.636,0.1979162456566029,24.00357639861759,0.1473652087152004,17.485187530517578,0.1727709174156189,21.13440704345703,-0.1321148574352264,-16.445056915283203,-0.1372021064162254,-17.87784767150879,L,False,True,3,L,400,,0.356,RightResponse,incorrect,True,13.0
114,122,966.0146666666667,11586,965.61,965.613,965.622,0.4418788901650945,41.99596855231944,0.1143353097140789,23.76792907714844,0.1981040239334106,35.578956604003906,-0.4268306344747543,-34.6229248046875,-0.3912730626761913,-37.695045471191406,L,False,True,3,R,400,,0.363,LeftResponse,incorrect,True,16.0
115,123,971.9266666666666,8578,971.712,971.717,971.722,0.3482331408294289,38.001439215329626,-0.2845667579676956,-32.15237045288086,-0.2439042925834655,-24.75997734069824,-0.2007189095020294,-20.2567138671875,-0.1981742978096008,-17.4383544921875,L,False,True,3,R,200,,0.277,RightResponse,correct,True,20.0
116,124,975.0536666666667,8586,974.993,975.0,975.007,0.917577271149499,89.93151358696228,-0.8663353100419044,-87.1198501586914,-0.8356325626373291,-79.26714324951172,0.3023428171873092,22.31163024902344,0.0736810863018035,4.134489059448242,L,False,True,3,L,50,,0.243,RightResponse,incorrect,True,13.0
117,125,978.9506666666666,2499,978.939,978.947,978.95,0.4314041442315987,42.1917173556758,0.315035879611969,24.920677185058597,0.3098844885826111,19.141870498657227,-0.2947234809398651,-34.04557037353516,-0.2566120475530624,-33.90688705444336,L,False,True,3,L,0,,0.249,LeftResponse,correct,True,20.0
118,126,983.8506666666667,2501,983.79,983.795,983.8,0.3884335017546466,47.21523812731544,0.3734891042113304,45.52543640136719,0.4242589175701141,45.72798156738281,-0.1067074239253997,-12.51852035522461,-0.1143306493759155,-9.539039611816406,L,False,True,3,R,50,,0.39,RightResponse,correct,True,16.0
119,127,989.8046666666667,8613,989.743,989.75,989.756,0.5589808656485059,60.308841653052326,-0.5564287006855011,-60.30873107910156,-0.4547717571258545,-48.84898376464844,-0.0533545613288879,0.11548662930727,-0.1092487573623657,-6.744269847869873,L,False,True,3,L,50,,0.339,LeftResponse,correct,True,15.0
120,128,993.3886666666667,11624,993.329,993.333,993.338,0.3883666638025895,43.198646723765805,0.2083444343879819,23.005653381347656,0.1727692633867263,16.56085968017578,-0.3277518302202225,-36.56313705444336,-0.3277046084403991,-36.74275970458984,L,False,True,3,R,50,,0.317,RightResponse,correct,True,14.0
121,129,996.7486666666666,8625,996.333,996.34,996.345,0.6194317171275681,65.06939631260951,-0.4802054762840271,-52.38623809814453,-0.2972574532032013,-27.43923759460449,-0.3912778459489345,-38.59674072265625,-0.3836419433355331,-37.20907974243164,L,False,True,3,R,400,,0.288,RightResponse,correct,True,19.0
122,130,1000.2586666666667,2532,999.85,999.856,999.861,0.3707243301785811,39.2031756448971,0.2464526668190956,27.278400421142575,0.2642320394515991,25.429845809936523,-0.2769433371722698,-28.15631103515625,-0.2921742796897888,-28.062423706054688,L,False,True,3,R,400,,0.345,RightResponse,correct,True,18.0
123,131,1006.2036666666667,8635,1006.193,1006.198,1006.203,0.3327908817368,38.64289266948142,-0.3302985690534115,-38.48095703125,-0.3582452721893787,-39.28912353515625,-0.0406525060534477,-3.533992052078247,-0.010162740945816,1.755372405052185,L,False,True,3,L,0,,0.294,LeftResponse,correct,True,19.0
124,132,1009.5136666666667,2545,1009.304,1009.309,1009.314,0.2755767934682411,29.70988464054545,0.2540769055485725,29.31125259399414,0.2286523580551147,22.634233474731445,-0.106712207198143,-4.8505377769470215,-0.0431877970695495,-7.43664026260376,L,False,True,3,R,200,,0.328,RightResponse,correct,True,19.0
125,133,1014.3896666666667,11648,1014.279,1014.282,1014.299,0.7034247537372655,70.52322834459498,-0.055896982550621,-52.617305755615234,-0.1270361095666885,-40.74448013305664,-0.7012003362178802,-46.95684051513672,-0.7164889127016068,-47.2801399230957,L,False,True,3,R,100,,0.219,RightResponse,correct,True,12.0
126,134,1017.5616666666667,2557,1017.449,1017.457,1017.462,0.6703038062215085,65.71728342877527,0.581829622387886,56.5427131652832,0.6554594933986664,67.23110961914062,-0.332838524132967,-33.49153518676758,-0.2083362340927124,-26.145727157592773,L,False,True,3,L,100,,0.239,RightResponse,incorrect,True,11.0
127,135,1023.8446666666666,8655,1023.785,1023.789,1023.792,0.1564802681339031,18.65705448695238,-0.132121036760509,-16.26104736328125,-0.2159616500139236,-25.938549041748047,0.0838457271456718,9.146803855895996,-0.0406505167484283,-4.896544456481934,L,False,True,3,L,50,,0.387,RightResponse,incorrect,True,13.0
128,136,1027.5826666666665,8664,1027.473,1027.478,1027.483,0.4404432941585292,51.489506279574464,-0.4141476452350616,-49.38361740112305,-0.3506277129054069,-41.02204132080078,-0.1499067153781652,-14.574895858764648,-0.0228655934333801,1.29339337348938,L,False,True,3,R,100,,0.332,RightResponse,correct,True,14.0
129,137,1030.6226666666666,2584,1030.51,1030.517,1030.522,0.788422129002225,80.10818441629463,0.5208131670951843,56.03141784667969,0.3480858728289604,41.4608268737793,0.5919147729873657,57.2520866394043,0.5767478719353676,42.49996566772461,L,False,True,3,R,100,,0.281,RightResponse,correct,True,13.0
130,138,1034.9646666666665,8682,1034.752,1034.756,1034.765,0.3613853723174088,28.999828242437783,-0.3353589177131653,-26.35332679748535,-0.3252125829458236,-20.164386749267575,-0.1346617378294468,-12.10339641571045,-0.2185072344727814,-10.440251350402832,L,False,True,3,L,200,,0.324,LeftResponse,correct,True,18.0
131,139,1038.2706666666666,8695,1038.057,1038.063,1038.066,0.3411495840498315,36.91294643857999,-0.2794819250702858,-27.948110580444336,-0.26677405834198,-26.931640625,0.195634588599205,24.11366271972656,0.2007073760032653,20.717329025268555,L,False,True,3,L,200,,0.331,RightResponse,incorrect,True,17.0
132,140,1043.4076666666665,8701,1042.996,1043.003,1043.009,0.5480680121486017,48.27860679369144,-0.5233894267585129,-46.564552307128906,-0.5488052517175674,-50.09928131103516,-0.1626101285219192,-12.750150680541992,-0.1244988292455673,-5.56663703918457,L,False,True,3,L,400,,0.319,LeftResponse,correct,True,17.0
133,141,1046.8266666666666,11701,1046.703,1046.708,1046.715,0.4057691848949589,37.55308385153117,0.1321194469928741,15.84514331817627,0.1499014794826507,15.290284156799316,-0.3836575075984001,-34.0465202331543,-0.4268298000097275,-39.01042938232422,L,False,True,3,L,100,,0.358,LeftResponse,correct,True,12.0
134,142,1049.9776666666667,2642,1049.966,1049.972,1049.979,0.38770018878662,35.57276053495528,0.3811171576380729,35.52473449707031,0.4293864646460861,39.35847091674805,0.0711417496204376,-1.8478449583053589,0.1524317264556884,13.141621589660645,L,False,True,3,L,0,,0.243,LeftResponse,correct,True,18.0
135,143,1053.5126666666665,2647,1053.502,1053.506,1053.51,0.3782265057410215,45.17781183986309,0.193099747877568,25.315473556518555,0.1880186647176742,22.774742126464844,-0.3252195827662945,-37.418731689453125,-0.4039531052112579,-45.86891555786133,L,False,True,3,R,0,,0.375,RightResponse,correct,True,17.0
136,144,1058.6296666666665,8726,1058.405,1058.41,1058.414,0.287456614382172,33.86119542259247,-0.2845675125718117,-33.65380859375,-0.2159671559929847,-23.167388916015625,-0.0406526252627372,-3.74188756942749,-0.1371839642524719,-15.889276504516602,L,False,True,3,L,200,,0.334,LeftResponse,correct,True,20.0
137,145,1061.8396666666665,8729,1061.825,1061.832,1061.835,0.3608396626024766,39.261310130693246,-0.3125133290886879,-30.581403732299805,-0.2134264558553695,-23.467679977416992,-0.1803903579711914,-24.621702194213867,-0.1778334975242614,-26.166757583618164,L,False,True,3,L,0,,0.266,LeftResponse,correct,True,16.0
138,146,1065.1116666666665,8731,1064.699,1064.702,1064.707,0.3291763917062594,36.701471981479344,-0.3277613595128059,-35.963680267333984,-0.2718618921935558,-29.08016586303711,-0.0304891467094421,-7.322004318237305,0.0076218545436859,1.6860439777374268,L,False,True,3,R,400,,0.307,RightResponse,correct,True,16.0
139,147,1069.0336666666665,11727,1069.027,1069.03,1069.04,0.4968004923538175,49.43700602860619,0.0940093882381916,27.486719131469727,0.1067127957940101,31.828760147094727,-0.4878247268497944,-41.09133529663086,-0.4852888733148575,-46.81966781616211,L,False,True,3,R,0,,0.392,RightResponse,correct,True,15.0
140,148,1076.5236666666665,2672,1076.403,1076.421,1076.427,0.7958379428301054,40.52373990593413,0.5564247369766235,24.43708038330078,-0.4243101477622986,-11.179248809814451,0.5689899325370789,32.326499938964844,0.5585829019546509,22.24997329711914,L,False,True,3,R,100,,0.35,RightResponse,correct,True,11.0
141,149,1080.0786666666665,8756,1079.669,1079.676,1079.682,0.7039594240336193,66.40698539894696,-0.6732053160667419,-63.27888488769531,-0.6478947699069977,-72.20404052734375,-0.2057995945215225,-20.14126205444336,-0.1854746639728546,-16.699546813964844,L,False,True,3,L,400,,0.336,RightResponse,incorrect,True,15.0
142,150,1083.1306666666665,8765,1083.012,1083.02,1083.026,0.8938754825812913,91.73138840392726,-0.8384082969278097,-87.7662582397461,-0.7368196845054626,-81.39686584472656,0.309975653886795,26.67829704284668,0.3861567080020904,23.650148391723636,L,False,True,3,L,100,,0.336,LeftResponse,correct,True,10.0
143,151,1086.3076666666666,8771,1086.249,1086.257,1086.264,0.9713928053752224,94.19063695628864,-0.9705417901277542,-94.16769409179688,-0.8994214832782745,-81.21199035644531,0.0406523793935775,2.0788168907165527,-0.0558973960578441,-4.758211612701416,L,False,True,3,R,50,,0.224,RightResponse,correct,True,16.0
144,152,1090.2876666666666,11763,1090.082,1090.082,1090.093,0.2643507116576494,26.404974129459195,0.0076221823692321,20.6028995513916,-0.0457342960871756,23.098094940185547,-0.2642408013343811,-16.514938354492188,-0.2337149977684021,-23.902114868164062,L,False,True,3,R,200,,0.346,RightResponse,correct,True,19.0
145,153,1094.0556666666666,11774,1093.834,1093.839,1093.848,0.5246042560967082,46.94305967493777,0.0355710685253143,16.16868782043457,0.020326018333435,14.043190002441406,-0.523396909236908,-44.07067489624024,-0.3353616595268249,-33.42027282714844,L,False,True,3,L,200,,0.326,LeftResponse,correct,True,18.0
146,154,1097.3366666666666,11779,1097.264,1097.269,1097.275,0.4103970398397814,43.6572117340165,0.0330303013324737,5.12778377532959,0.0482750460505485,6.051693916320801,-0.4090656787157058,-43.35502243041992,-0.3785497546195984,-34.89867401123047,L,False,True,3,R,50,,0.33,RightResponse,correct,True,15.0
147,155,1100.3506666666665,11782,1100.34,1100.345,1100.352,0.4820043304327803,50.80526886128052,0.1067116260528564,14.505271911621094,0.15752894571051,19.81818199157715,-0.4700434058904648,-48.69057846069336,-0.5208292603492737,-51.08989715576172,L,False,True,3,R,0,,0.344,RightResponse,correct,True,14.0
148,156,1106.1586666666665,8801,1106.042,1106.048,1106.055,0.4303682065926927,38.98615077000477,-0.3963544741272926,-36.58669662475586,-0.3074320890009403,-25.338502883911133,0.1676899641752243,13.466015815734863,0.0584269762039184,8.798665046691895,L,False,True,3,L,100,,0.347,LeftResponse,correct,True,9.0
149,157,1110.4096666666665,8810,1110.397,1110.405,1110.412,1.015832302711696,96.94476101883464,-0.9982808828353882,-96.01785278320312,-1.0543525964021685,-107.53917694091795,-0.1880174092948436,-13.373804092407228,-0.3836490586400032,-31.87401962280273,L,False,True,3,R,0,,0.372,RightResponse,correct,True,13.0
150,158,1113.8026666666665,2766,1113.592,1113.6,1113.606,0.6045221387774999,57.23397929322409,0.6021628379821777,57.0058822631836,0.5996119529008865,62.571022033691406,0.0533566568046808,5.104681491851807,0.0813032984733581,9.608552932739258,L,False,True,3,R,200,,0.219,RightResponse,correct,True,17.0
151,159,1116.6836666666666,2774,1116.606,1116.615,1116.622,0.7559672775504701,64.90635432557514,0.7545825988054276,64.85750579833984,0.8739385455846786,78.43577575683594,0.0457343012094497,-2.5176920890808105,0.1321164667606353,6.721301078796387,L,False,True,3,L,50,,0.212,LeftResponse,correct,True,14.0
152,161,1151.5146666666665,11910,1151.103,1151.106,1151.113,0.2918109453749152,30.83707213039618,-0.0355659127235412,-16.05049705505371,-0.0965501090977341,-17.20806884765625,-0.2896354496479034,-26.33071517944336,-0.1880103349685669,-23.166378021240234,L,False,True,4,L,400,,0.231,LeftResponse,correct,True,18.0
153,162,1157.0686666666666,2894,1156.959,1156.963,1156.968,0.2298547199113012,27.956962008309656,0.2159417271614074,26.79058837890625,0.2896497100591659,29.380754470825195,-0.0787550806999206,-7.991001129150391,-0.0965500362217426,-7.714768409729004,L,False,True,4,L,100,,0.277,RightResponse,incorrect,True,8.0
154,163,1160.2786666666666,5934,1160.067,1160.072,1160.078,0.3576508108771762,40.54227205797221,0.1371849179267883,16.975038528442383,0.1880182819440961,27.67151641845703,0.3302944153547287,36.81744003295898,0.5665907561779022,52.016395568847656,L,False,True,4,L,200,,0.295,LeftResponse,correct,True,16.0
155,165,1172.0486666666666,8951,1171.988,1171.993,1171.998,0.3988021722155968,44.54915913037965,-0.3987697958946228,-44.148773193359375,-0.5157778859138489,-57.44475173950195,-0.0050815790891647,-5.959312438964844,-0.1117946431040763,-7.714742660522461,L,False,True,4,R,50,,0.294,RightResponse,correct,True,13.0
156,166,1175.7746666666665,8960,1175.362,1175.369,1175.376,0.8507611127488858,90.95280834325956,-0.8483865261077881,-90.7722396850586,-0.7520641982555389,-76.17684936523438,-0.0635198652744293,-5.728337287902832,-0.0965496897697448,-13.165844917297363,L,False,True,4,R,400,,0.336,LeftResponse,incorrect,True,17.0
157,167,1179.1306666666665,8980,1179.013,1179.026,1179.029,0.5769502524314658,47.553046808312025,-0.4522487707436085,-31.481353759765625,-0.4344207048416137,-31.87248992919922,-0.3582494147121906,-35.640098571777344,-0.3150556897744536,-37.903690338134766,L,False,True,4,R,100,,0.371,LeftResponse,incorrect,True,11.0
158,168,1182.9026666666666,2966,1182.691,1182.695,1182.7,0.3013263781812711,30.729243697495004,0.2845673318952322,28.641510009765625,0.2184897065162658,24.574338912963867,-0.0990909673273563,-11.13329792022705,-0.1905543804168701,-18.177663803100582,L,False,True,4,L,200,,0.352,LeftResponse,correct,True,15.0
159,169,1186.0126666666665,8990,1185.802,1185.808,1185.814,0.5727343368312379,60.62064568919804,-0.5157761573791504,-56.93637847900391,-0.4624137980863452,-50.9302978515625,0.2489971406757831,20.81133079528809,0.3023507036268711,30.281423568725582,L,False,True,4,R,200,,0.203,RightResponse,correct,True,14.0
160,170,1189.6926666666666,11961,1189.583,1189.587,1189.595,0.4398965559854353,49.49384700274221,0.1854775957763195,26.74753189086914,0.1600626409053802,26.330324172973636,-0.3988822400569916,-41.64385223388672,-0.3811175674200058,-26.60888671875,L,False,True,4,L,100,,0.296,LeftResponse,correct,True,14.0
161,171,1193.3436666666666,11964,1193.288,1193.292,1193.301,0.3867298675793358,31.21980724304234,0.0203263582661747,10.163172721862791,0.0101624429225921,9.931231498718262,-0.3861953257583081,-29.51925277709961,-0.4115839004516601,-22.91140937805176,L,False,True,4,L,50,,0.362,RightResponse,incorrect,True,12.0
162,173,1200.9626666666666,2996,1200.555,1200.561,1200.565,0.3468073005221792,38.70116205289704,0.2693191021680832,27.971229553222656,0.2845610529184341,28.01704216003418,-0.2185006290674209,-26.74678039550781,-0.2515167593955993,-29.4011173248291,L,False,True,4,L,400,,0.339,LeftResponse,correct,True,19.0
163,174,1204.2686666666666,3006,1204.257,1204.261,1204.267,0.3084177413471536,35.370180517248315,0.3023295402526855,35.36040496826172,0.2312113922089338,27.348085403442383,-0.0609782934188842,-0.8315228819847107,0.045727252960205,2.3325536251068115,L,False,True,4,R,0,,0.301,RightResponse,correct,True,12.0
164,175,1208.1236666666666,3009,1208.109,1208.117,1208.122,0.4776255028940705,50.10914469796265,0.4649627804756164,47.836063385009766,0.3836463540792465,41.69062042236328,-0.109250783920288,-14.921039581298828,-0.0838454067707061,-16.491802215576172,L,False,True,4,L,0,,0.349,LeftResponse,correct,True,11.0
165,176,1211.6046666666666,3020,1211.197,1211.204,1211.21,0.6769317900257504,66.43943653425592,0.6199429333209991,60.42415618896485,0.7418698114342988,69.66004943847656,-0.2718591690063476,-27.6246280670166,-0.2489522695541381,-21.731355667114254,L,False,True,4,R,400,,0.32,RightResponse,correct,True,18.0
166,177,1214.5816666666665,6011,1214.473,1214.477,1214.484,0.3312026036385617,29.78196632128276,0.1854663789272308,16.51407241821289,0.2667762339115143,29.703428268432617,0.2744036933872849,24.784086227416992,0.2947032451629638,23.55805778503418,L,False,True,4,R,100,,0.27,RightResponse,correct,True,13.0
167,178,1219.0066666666667,3041,1218.596,1218.604,1218.61,0.6407766403592612,62.4001035073008,0.640272706747055,62.06403732299805,0.6682213842868805,58.668827056884766,-0.0254079480655491,-6.467471599578857,0.0050813257694244,-3.603096723556519,L,False,True,4,R,400,,0.241,RightResponse,correct,True,17.0
168,179,1222.8746666666666,3054,1222.467,1222.472,1222.475,0.279128577675784,30.424131025057104,0.2286708988249302,23.79099464416504,0.2667726278305053,25.707040786743164,-0.1600699312984943,-18.963552474975582,-0.0838406085968017,-13.44216251373291,L,False,True,4,L,400,,0.373,LeftResponse,correct,True,16.0
169,180,1226.0556666666666,9056,1226.044,1226.051,1226.056,0.7887463009925288,82.22574711679535,-0.5945364832878113,-61.41684722900391,-0.5208574384450912,-56.77480316162109,-0.5183117762207985,-54.67215347290039,-0.4648846983909607,-46.07205581665039,L,False,True,4,L,0,,0.335,RightResponse,incorrect,True,10.0
170,181,1232.0886666666665,9058,1231.877,1231.886,1231.892,0.7283958229515645,71.65844589025075,-0.7088298499584198,-68.80328369140625,-0.7723867297172546,-74.74430084228516,-0.1676923334598541,-20.02600860595703,-0.2006987929344177,-15.68159294128418,L,False,True,4,L,200,,0.377,RightResponse,incorrect,True,13.0
171,182,1235.4856666666665,12019,1235.274,1235.281,1235.287,0.4951381105978595,45.175398279461554,0.0686014043167233,6.883236408233643,-0.1803868412971496,-15.128649711608888,-0.4903627187013626,-44.64793014526367,-0.5665081143379211,-48.96041488647461,L,False,True,4,R,200,,0.367,RightResponse,correct,True,16.0
172,183,1238.5286666666666,3092,1238.416,1238.422,1238.428,0.6937041926126707,70.5932040849679,0.5970736443996429,63.03366088867188,0.5208464488387108,57.88180923461914,0.353169322013855,31.782983779907227,0.2210275828838348,19.19288444519043,L,False,True,4,R,100,,0.298,RightResponse,correct,True,12.0
173,184,1242.5926666666667,3101,1242.384,1242.39,1242.395,0.5605349126828979,61.729920280868505,0.5183178335428238,59.96231842041016,0.5640354100614786,58.297306060791016,-0.213415116071701,-14.666404724121094,-0.1879988014698028,-19.49242782592773,L,False,True,4,R,200,,0.336,RightResponse,correct,True,15.0
174,185,1245.7736666666665,12031,1245.764,1245.768,1245.776,0.5350300928394608,52.41026392295726,0.1422841632738709,21.36565589904785,0.0660562515258789,18.915645599365234,-0.5157639160752296,-47.8575439453125,-0.3404167294502258,-45.058349609375,L,False,True,4,R,0,,0.294,RightResponse,correct,True,13.0
175,186,1250.7946666666667,9102,1250.783,1250.788,1250.793,0.335881838607081,35.71075785288875,-0.330301221460104,-35.709495544433594,-0.3455465734004974,-35.47858810424805,-0.060973048210144,-0.3002572059631347,-0.2870498299598694,-26.949148178100582,L,False,True,4,R,0,,0.377,RightResponse,correct,True,12.0
176,187,1253.7126666666666,3131,1253.637,1253.646,1253.652,0.6509325644510267,62.77731419030108,0.650436520576477,62.68791198730469,0.5869020307436585,52.892822265625,0.0254074037075042,-3.349159240722656,0.0101611614227294,2.9097633361816406,L,False,True,4,L,50,,0.24,RightResponse,incorrect,True,15.0
177,188,1256.5566666666666,3142,1256.444,1256.453,1256.46,1.011276890770216,92.29084512156332,0.9019622504711152,79.96482849121094,0.6986919268965721,70.9549331665039,-0.4573237895965576,-46.0784797668457,-0.6299318671226501,-53.4102783203125,L,False,True,4,R,100,,0.227,RightResponse,correct,True,11.0
178,189,1263.2556666666665,9134,1263.192,1263.197,1263.202,0.3595814845252685,36.22967685038304,-0.3125160858035087,-34.023372650146484,-0.3226800858974457,-33.469139099121094,-0.1778553910553455,-12.449883460998535,-0.0254039764404296,-5.866005897521973,L,False,True,4,R,50,,0.28,RightResponse,correct,True,18.0
179,190,1266.5116666666665,9142,1266.497,1266.502,1266.507,0.3326351317227886,31.10267639532064,-0.2744035208597779,-29.103404998779297,-0.2007168531417846,-23.928874969482425,-0.1880128681659698,-10.971248626708984,-0.0863777995109558,-1.2702763080596924,L,False,True,4,L,0,,0.295,RightResponse,incorrect,True,11.0
180,191,1270.4956666666665,3168,1270.284,1270.292,1270.299,1.2516975346779184,119.86119090463475,1.15591886267066,115.77747344970705,1.318334698677063,125.78196716308594,0.4802065193653106,31.020666122436523,0.4420846402645111,35.47777557373047,L,False,True,4,R,200,,0.212,LeftResponse,incorrect,True,14.0
181,192,1277.4566666666665,9157,1277.392,1277.398,1277.403,0.4563706143594484,43.80185699644101,-0.4319235645234585,-42.52238464355469,-0.2998131066560745,-33.4460334777832,-0.14736407995224,-10.50949478149414,-0.0660590529441833,-6.167020320892334,L,False,True,4,L,50,,0.302,LeftResponse,correct,True,17.0
182,193,1281.4746666666665,12089,1281.367,1281.371,1281.378,0.5564386212434332,59.49613489711489,0.3277561366558075,35.75516891479492,0.2616209387779236,37.72942352294922,-0.4496663808822632,-47.55373764038086,-0.4065249860286712,-37.41877746582031,L,False,True,4,L,100,,0.292,RightResponse,incorrect,True,10.0
183,194,1284.4346666666665,9174,1284.42,1284.426,1284.431,0.3648211541926137,41.99500982878328,-0.3531690388917923,-40.329193115234375,-0.4878204804845154,-52.03881072998047,-0.091466411948204,-11.710552215576172,-0.2108680307865142,-22.633983612060547,L,False,True,4,R,0,,0.241,LeftResponse,incorrect,True,14.0
184,195,1288.3436666666666,3206,1288.332,1288.339,1288.344,0.4458573182538191,46.57065868456825,0.414142370223999,44.67086410522461,0.3226596415042877,35.52226638793945,-0.1651509776711464,-13.165870666503906,-0.2895935177803039,-24.548290252685547,L,False,True,4,L,0,,0.334,LeftResponse,correct,True,17.0
185,196,1291.6826666666666,3217,1291.574,1291.58,1291.585,0.527109227699813,57.63177280414715,0.4370115175843239,47.72036361694336,0.6250187307596207,62.15534973144531,-0.294728809967637,-32.313899993896484,-0.2235575914382934,-19.86160659790039,L,False,True,4,L,100,,0.252,LeftResponse,correct,True,13.0
186,197,1295.7756666666667,12112,1295.365,1295.37,1295.378,0.488882831165299,45.641633239883305,0.1727739125490188,22.751638412475582,0.198171854019165,23.258373260498047,-0.4573353230953216,-39.566673278808594,-0.5716741383075714,-48.64444351196289,L,False,True,4,R,400,,0.369,RightResponse,correct,True,15.0
187,198,1300.5756666666666,9204,1300.363,1300.372,1300.375,0.3830542559473505,34.81541622470855,-0.3379169404506683,-29.56459617614746,-0.3938180319964885,-32.660552978515625,-0.1803959654644131,-18.38607788085937,-0.0940000414848327,-11.50172996520996,L,False,True,4,L,200,,0.356,LeftResponse,correct,True,17.0
188,199,1304.6766666666665,9213,1304.614,1304.62,1304.625,0.4284120561798894,44.555787383066296,-0.3861806392669678,-41.71293640136719,-0.2820255011320114,-30.396879196166992,-0.185476154088974,-15.66043186187744,-0.2007124423980713,-13.396119117736816,L,False,True,4,R,50,,0.266,RightResponse,correct,True,16.0
189,201,1343.0926666666667,9334,1342.978,1342.984,1342.989,0.4025068219480767,46.610617685447686,-0.3531634286046028,-40.85982894897461,-0.3480871543288231,-39.54386138916016,-0.1930992864072322,-22.428197860717773,-0.1219568699598312,-8.615461349487305,L,False,True,5,L,100,,0.303,RightResponse,incorrect,True,12.0
190,203,1350.3906666666664,12239,1349.981,1349.986,1349.992,0.3896981567964386,37.60982222336629,0.2108818143606186,22.774293899536133,0.3226780174300074,32.9606819152832,-0.3277094960212707,-29.930423736572266,-0.3252153471112251,-29.05668830871582,L,False,True,5,L,400,,0.297,RightResponse,incorrect,True,14.0
191,204,1353.5216666666665,6267,1353.41,1353.417,1353.427,1.131775953143281,96.32967985417775,-0.533561959862709,-48.5750732421875,-0.6351883113384247,-65.13611602783203,0.9981124401092528,83.18575286865234,0.7698444873094559,62.91877365112305,L,False,True,5,R,100,,0.204,RightResponse,correct,True,15.0
192,205,1356.6356666666666,6270,1356.57,1356.578,1356.585,0.5485845566019127,47.487667897295225,0.2871068883687258,28.271976470947266,0.2388304993510246,31.551088333129883,0.467455506324768,38.15460586547852,0.4446368813514709,48.6675910949707,L,False,True,5,L,50,,0.233,LeftResponse,correct,True,15.0
193,207,1370.6876666666665,9372,1370.576,1370.58,1370.585,0.27703131290374,36.326508521166005,-0.2718457579612732,-35.383819580078125,-0.2744041811674833,-30.05049133300781,-0.0533500909805297,-8.221954345703125,-0.0940086767077446,-8.66170597076416,L,False,True,5,R,100,,0.252,RightResponse,correct,True,14.0
194,208,1375.8376666666666,9377,1375.426,1375.431,1375.436,0.3856411616462746,40.25459680469754,-0.3277246952056885,-35.77474594116211,-0.3125152420252561,-36.0328254699707,-0.2032624650746584,-18.45535469055176,-0.1295804753899574,-12.057220458984377,L,False,True,5,R,400,,0.297,RightResponse,correct,True,17.0
195,209,1380.3256666666666,3454,1380.264,1380.27,1380.274,0.4024004944002518,40.34659470378045,0.2566189020872116,22.7053337097168,0.3353757113218307,32.75215148925781,-0.309956282377243,-33.35139465332031,-0.3125165775418281,-29.75031089782715,L,False,True,5,L,50,,0.268,LeftResponse,correct,True,14.0
196,211,1388.4526666666666,9403,1388.437,1388.443,1388.45,0.5929290801543167,59.05469131878972,-0.5818034112453461,-58.342166900634766,-0.5182647109031677,-53.14222717285156,-0.1143227219581604,-9.14593505859375,-0.0635191351175308,-8.130387306213379,L,False,True,5,L,0,,0.268,LeftResponse,correct,True,16.0
197,212,1394.8806666666665,9409,1394.867,1394.873,1394.879,0.4745607434960832,52.56742764943244,-0.462412916123867,-51.41519165039063,-0.4878260046243667,-50.46888732910156,-0.1066873669624328,-10.945890426635742,-0.0609790571033954,-12.727068901062012,L,False,True,5,L,0,,0.366,RightResponse,incorrect,True,15.0
198,213,1402.1336666666666,9420,1401.719,1401.724,1401.729,0.2828415865899489,32.33369878386359,-0.2743978202342987,-32.05930709838867,-0.368413895368576,-36.47186279296875,0.0685944557189941,4.203439712524414,0.0558971390128135,8.546241760253906,L,False,True,5,L,400,,0.308,LeftResponse,correct,True,15.0
199,214,1406.9006666666667,9429,1406.891,1406.897,1406.903,0.5673164769985901,61.4419671089392,-0.4878278225660324,-54.71899032592773,-0.5945040583610535,-56.54069137573242,-0.2896066308021545,-27.945436477661133,-0.2337525114417076,-24.391605377197266,L,False,True,5,L,0,,0.297,LeftResponse,correct,True,18.0
200,215,1413.5206666666666,9436,1413.456,1413.462,1413.467,0.3059495246386061,32.1987964111901,-0.3048927998170256,-32.19858932495117,-0.3099757134914398,-36.12534713745117,-0.025406539440155,0.115480788052082,-0.1194077134132385,-12.61048698425293,L,False,True,5,L,50,,0.371,RightResponse,incorrect,True,13.0
201,216,1420.3946666666666,9447,1420.179,1420.188,1420.193,0.7384482692479608,68.5365086159919,-0.5284804105758667,-47.88196563720703,-0.5259145349264145,-57.97314453125,-0.515765743330121,-49.03641891479492,-0.1829344928264618,-25.7999210357666,L,False,True,5,L,200,,0.326,LeftResponse,correct,True,16.0
202,217,1425.6396666666665,9457,1425.432,1425.438,1425.443,0.5040214651060047,49.60080741786294,-0.4725540578365326,-46.9552001953125,-0.6656706854701042,-68.5995101928711,-0.1753005981445312,-15.982780456542969,-0.1956410035490989,-18.386066436767575,L,False,True,5,R,200,,0.341,RightResponse,correct,True,15.0
203,218,1428.9416666666666,12349,1428.883,1428.887,1428.896,0.5274153275056529,49.77018944568937,0.2489833831787109,29.97982406616211,0.2540713995695114,38.71086502075195,-0.464945375919342,-39.72759628295898,-0.2794868797063827,-16.630626678466797,L,False,True,5,R,50,,0.249,RightResponse,correct,True,16.0
204,219,1433.3626666666667,9467,1433.254,1433.262,1433.269,1.0933177659050386,102.5127439359637,-1.0669241696596146,-101.95844268798828,-0.9807199835777284,-99.68927001953124,-0.2387813925743103,-10.646061897277832,-0.2464382052421569,-17.73830223083496,L,False,True,5,R,100,,0.343,RightResponse,correct,True,13.0
205,220,1436.3106666666665,12361,1436.304,1436.309,1436.318,0.7143158010786307,72.58963604458322,-0.2896494269371032,-43.03140258789063,-0.4826830327510834,-48.73112869262695,-0.6529550314880908,-58.45984649658203,-0.609784722328186,-49.036869049072266,L,False,True,5,R,0,,0.271,LeftResponse,incorrect,True,17.0
206,221,1439.7076666666665,9481,1439.29,1439.297,1439.302,0.6113662853005588,62.75665245578181,-0.4954350739717483,-50.79070663452149,-0.4547986537218094,-45.34138870239258,-0.3582077920436859,-36.86056900024414,-0.360789155587554,-38.15787506103516,L,False,True,5,L,400,,0.355,RightResponse,incorrect,True,14.0
207,222,1443.6216666666667,3584,1443.556,1443.563,1443.566,0.3422440002933649,35.60187655469363,0.2591392397880554,24.06644630432129,0.2565818428993225,25.865800857543945,-0.22355717420578,-26.2354679107666,-0.3201327919960022,-36.817657470703125,L,False,True,5,R,50,,0.303,RightResponse,correct,True,15.0
208,223,1448.1226666666666,12377,1447.715,1447.719,1447.726,0.3158525545666598,31.58753401614813,0.0914655029773712,19.586668014526367,0.1295800320804119,23.25958251953125,-0.302319198846817,-24.781742095947266,-0.2998126298189163,-27.117164611816406,L,False,True,5,R,400,,0.365,RightResponse,correct,True,17.0
209,224,1451.0826666666665,3598,1451.069,1451.077,1451.083,0.4640506771389319,50.87326357198852,0.4573179483413696,48.5500602722168,0.5716645196080208,53.70176315307617,-0.0787611901760101,-15.19804573059082,-0.0889260917901992,-5.889904022216797,L,False,True,5,R,0,,0.311,LeftResponse,incorrect,True,20.0
210,225,1454.8956666666666,3604,1454.783,1454.788,1454.794,0.3309296056442066,35.03733347084221,0.3201324045658111,33.607017517089844,0.2794835641980171,34.6005744934082,-0.0838429927825927,-9.90873908996582,-0.160062164068222,-9.862367630004885,L,False,True,5,L,100,,0.29,LeftResponse,correct,True,12.0
211,226,1457.7316666666666,9508,1457.711,1457.718,1457.724,0.7500099730080103,80.28611984536569,-0.7494890810921788,-80.26154327392578,-0.7876330614089966,-74.51345825195312,-0.0279477536678314,-1.9863814115524288,-0.0813013911247253,-5.104426860809326,L,False,True,5,R,0,,0.302,RightResponse,correct,True,23.0
212,228,1472.8906666666664,9532,1472.777,1472.783,1472.79,0.6243844826834831,63.47347788609851,-0.6147518455982208,-62.53822708129883,-0.6250168047845364,-62.20198440551758,-0.1092526912689209,-10.85599136352539,-0.0482746213674545,-1.0625001192092896,L,False,True,5,R,100,,0.282,RightResponse,correct,True,11.0
213,230,1484.4226666666666,9551,1484.208,1484.215,1484.22,0.5101527138293501,54.66949608916031,-0.5080986022949219,-53.60405349731445,-0.3353833109140396,-38.13484191894531,-0.0457340329885482,-10.7405424118042,-0.0940091572701931,-5.33565092086792,L,False,True,5,R,200,,0.389,RightResponse,correct,True,14.0
214,231,1489.3566666666666,9559,1489.342,1489.348,1489.355,0.5571868131393294,53.58898804059108,-0.5563520193099976,-53.58061981201172,-0.4903682470321655,-46.49630737304688,0.0304889380931854,0.9470056891441344,-0.0914632380008697,-6.513265609741211,L,False,True,5,L,0,,0.265,LeftResponse,correct,True,22.0
215,232,1492.6416666666667,12437,1492.536,1492.538,1492.543,0.2729353678477294,32.0868968710962,0.1321187168359756,18.824546813964844,0.088923692703247,21.803674697875977,-0.2388270497322082,-25.98471450805664,-0.1778412759304046,-19.97822380065918,L,False,True,5,L,100,,0.257,LeftResponse,correct,True,10.0
216,235,1503.6786666666665,9601,1503.665,1503.672,1503.679,0.6356601794627695,62.13647628141936,-0.6351522356271744,-61.66722869873047,-0.5792963206768036,-66.52216339111328,0.0254067182540893,7.621980667114258,0.0609789863228797,7.760969638824463,L,False,True,5,R,0,,0.255,RightResponse,correct,True,21.0
217,236,1509.7026666666666,9608,1509.487,1509.493,1509.498,0.4285339227711454,41.91809193542586,-0.4115592539310455,-41.20205307006836,-0.3709464222192764,-37.74159240722656,-0.1194165125489234,-7.714742660522461,-0.2108744084835052,-18.89304542541504,L,False,True,5,R,200,,0.206,RightResponse,correct,True,13.0
218,237,1514.7656666666664,9615,1514.701,1514.707,1514.712,0.4664803275714563,43.88125928651064,-0.3861646056175232,-40.57958984375,-0.2998089641332626,-31.69022560119629,-0.2616883516311645,-16.699155807495117,-0.2261292785406112,-22.728294372558597,L,False,True,5,R,50,,0.38,RightResponse,correct,True,14.0
219,238,1517.9916666666666,12485,1517.928,1517.933,1517.941,0.5706152284932225,50.6837423418604,0.2693236172199249,25.9853630065918,0.2972638458013534,32.61333465576172,-0.5030571818351746,-43.51554489135742,-0.5615042224526405,-52.593299865722656,L,False,True,5,L,50,,0.339,LeftResponse,correct,True,13.0
