,trialIndex,targetOnsetTime,Unnamed: 0,startTime,peakVelocityTime,stopTime,amplitude,peakVelocity,saccade_vec_left_x,peak_velocity_vec_left_x,saccade_vec_right_x,peak_velocity_vec_right_x,saccade_vec_left_y,peak_velocity_vec_left_y,saccade_vec_right_y,peak_velocity_vec_right_y,whichEye,otherEyeMissingData,isBinocular,blockId,arrowDirection,latency,blankDuration,fixationDurationInSec,response,result,isSaccade,blankDurationInFrameCount
0,1,221.63966666666667,993,221.578,221.583,221.587,0.3067097680186749,30.44211976824894,0.1955426931381225,21.93228530883789,0.1016276180744171,8.615277290344238,-0.2362920586019754,-21.111549377441406,-0.1270389184355735,-15.36016845703125,L,False,True,0,L,50,,0.258,RightResponse,incorrect,True,4.0
1,2,226.73166666666668,11985,226.622,226.627,226.634,0.3146723854616664,33.42395091587779,-0.1168141365051269,-14.7282133102417,-0.0940081477165222,-11.06381607055664,-0.2921868711709976,-30.004003524780277,-0.2083380371332168,-18.5472469329834,L,False,True,0,R,100,,0.246,LeftResponse,incorrect,True,4.0
2,3,232.09366666666668,11993,232.027,232.035,232.037,0.2398273505358219,23.29076765300796,-0.1422373652458191,-19.164958953857425,-0.068590223789215,-13.648834228515623,-0.1930950284004211,-13.23496150970459,-0.1829283535480499,-15.775151252746582,L,False,True,0,L,50,,0.326,RightResponse,incorrect,True,7.0
3,4,236.12866666666667,1035,235.919,235.924,235.931,0.4655234378887199,44.8452116219168,0.4342726469039917,44.39640426635742,0.4166437089443207,38.33824920654297,-0.1676882207393646,-6.328688144683838,-0.1880176588892936,-16.74608612060547,L,False,True,0,L,200,,0.38,LeftResponse,correct,True,3.0
4,5,240.61266666666668,1049,240.202,240.208,240.213,0.2920656207808893,31.2838750622072,0.2819448709487915,30.68846321105957,0.3175352215766907,32.423343658447266,-0.0762195289134979,-6.074460029602051,-0.0609781146049499,-8.315204620361328,L,False,True,0,L,400,,0.243,NoResponse,incorrect,True,4.0
5,6,245.15466666666669,12017,245.042,245.048,245.056,0.5422683793822716,49.39473347424291,0.1752380132675171,16.231168746948242,0.2261051833629608,21.61759185791016,-0.5131731033325195,-46.65178298950195,-0.7495203614234924,-58.6455307006836,L,False,True,0,L,100,,0.368,RightResponse,incorrect,True,7.0
6,7,248.43566666666666,8725,248.323,248.328,248.334,0.3606470990918543,39.78780632321023,-0.3530407547950744,-38.07500457763672,-0.4496458768844604,-46.02720642089844,0.0736787319183349,11.548314094543455,-0.0533565990626812,-6.00549840927124,L,False,True,0,L,100,,0.218,LeftResponse,correct,True,10.0
7,8,253.23966666666666,1081,253.029,253.035,253.039,0.3121180087260615,33.680183626459375,0.2616074085235595,27.546293258666992,0.2871069461107254,29.21892738342285,-0.1702328263781964,-19.37928009033203,-0.1575269997119903,-13.604621887207031,L,False,True,0,R,200,,0.248,RightResponse,correct,True,2.0
8,9,257.3246666666667,8740,257.314,257.322,257.328,0.5750821608750752,50.28856146684784,-0.5053967833518982,-45.45920944213867,-0.3887292221188545,-43.63080978393555,-0.2743967622518539,-21.503480911254883,-0.2464562281966209,-25.24622344970703,L,False,True,0,R,0,,0.382,LeftResponse,incorrect,True,4.0
9,10,262.15766666666667,1096,262.091,262.095,262.098,0.1991367935974776,22.247381365491307,0.1727358102798462,19.167285919189453,0.2159523665904998,24.505460739135746,-0.0990848243236541,-11.294296264648438,-0.0965500120073556,-13.30449676513672,L,False,True,0,R,50,,0.26,RightResponse,correct,True,10.0
10,11,266.17966666666666,8754,265.768,265.773,265.777,0.3664093893936072,40.59047260460162,-0.2032166719436645,-23.785459518432617,-0.0940015316009521,-9.608006477355955,-0.3048914968967438,-32.89131164550781,-0.3379206620156765,-30.99730491638184,L,False,True,0,R,400,,0.313,RightResponse,correct,True,7.0
11,12,271.84566666666666,1117,271.633,271.639,271.645,0.4203557958770884,42.340177934871726,0.3784624338150024,39.093170166015625,0.2972712442278862,30.83583068847656,-0.1829349100589752,-16.260833740234375,-0.2007215861231088,-15.452588081359863,L,False,True,0,L,200,,0.24,LeftResponse,correct,True,1.0
12,13,276.0756666666667,8771,275.665,275.67,275.676,0.2976147442557326,31.70750253134082,-0.2666816711425781,-27.384111404418945,-0.2667737901210785,-27.739974975585938,-0.1321189701557159,-15.98362159729004,-0.0584377348423004,-2.4483835697174072,L,False,True,0,L,400,,0.322,LeftResponse,correct,True,6.0
13,14,279.70666666666665,8781,279.296,279.303,279.308,0.6159102658692065,56.30566877795555,-0.2845191359519958,-26.58090591430664,-0.276926577091217,-25.70612144470215,-0.5462548094801605,-49.63651657104492,-0.4497182965278625,-42.2232666015625,L,False,True,0,R,400,,0.37,LeftResponse,incorrect,True,5.0
14,15,283.06666666666666,8791,283.005,283.012,283.018,0.5415674816163647,46.04600707346869,-0.4038898944854736,-37.248008728027344,-0.4293045997619629,-42.28337097167969,-0.3607884286902845,-27.07065963745117,-0.355707798153162,-29.103302001953125,L,False,True,0,L,50,,0.395,LeftResponse,correct,True,9.0
15,16,287.1546666666667,8800,286.942,286.949,286.954,0.495389113996,50.25142653636625,-0.3962908983230591,-42.30754852294922,-0.3353421092033386,-30.73921012878418,-0.2972606569528579,-27.11599540710449,-0.205804169178009,-24.04513931274414,L,False,True,0,L,200,,0.258,RightResponse,incorrect,True,1.0
16,17,291.1596666666667,12094,291.053,291.056,291.063,0.356360024946488,39.05935062260656,0.2667551338672638,32.01064682006836,0.2693150788545608,31.504785537719727,-0.2362925431225448,-22.38194274902344,-0.231206864118576,-23.143871307373047,L,False,True,0,L,100,,0.309,RightResponse,incorrect,True,9.0
17,18,294.64866666666666,1171,294.639,294.644,294.65,0.4020274414045632,45.3398562262885,0.4013766646385193,45.333831787109375,0.411595769226551,41.321434020996094,0.0228656232357025,0.7390927672386169,-0.2083441955037415,-23.79099464416504,L,False,True,0,R,0,,0.224,LeftResponse,incorrect,True,7.0
18,19,299.7866666666667,8825,299.676,299.683,299.691,0.5189698460934739,46.59196983603911,-0.4952861666679382,-44.910587310791016,-0.3277397453784942,-33.952083587646484,-0.1549881100654602,-12.403660774230955,-0.1981789916753769,-9.539421081542969,L,False,True,0,R,100,,0.278,LeftResponse,incorrect,True,12.0
19,20,303.2176666666667,8834,303.108,303.116,303.12,0.4006464946869671,36.56612189734115,-0.2768685817718506,-20.574121475219727,-0.2947055101394653,-25.61319732666016,-0.2895883321762085,-30.228906631469727,-0.3252198025584221,-36.54101943969727,L,False,True,0,L,100,,0.289,LeftResponse,correct,True,15.0
20,21,306.9146666666667,8843,306.852,306.858,306.862,0.3107413373197436,33.81043735962312,-0.261616051197052,-28.054805755615234,-0.238823115825653,-23.350954055786133,-0.1676819026470184,-18.869911193847656,-0.2312120273709297,-25.892980575561523,L,False,True,0,R,50,,0.236,LeftResponse,incorrect,True,8.0
21,22,310.2536666666667,12125,310.242,310.248,310.256,0.4720467698574684,43.97174109415823,-0.2311561703681945,-28.657129287719727,-0.099077820777893,-13.210227966308594,-0.4115762114524841,-33.35090637207031,-0.3633319661021232,-26.562789916992188,L,False,True,0,L,0,,0.23,LeftResponse,correct,True,10.0
22,23,314.42466666666667,8857,314.014,314.02,314.026,0.5095999379432999,50.64937495908945,-0.4775562286376953,-49.55681228637695,-0.5665249824523926,-57.64517593383789,-0.1778542809188366,-10.463342666625977,-0.1575276851654052,-14.45930290222168,L,False,True,0,R,400,,0.292,RightResponse,correct,True,8.0
23,24,319.89566666666667,8864,319.835,319.84,319.846,0.298865106747067,32.3495167812401,-0.281960666179657,-31.890892028808597,-0.1676853001117706,-19.26299095153809,-0.0990885198116302,-5.427913188934326,-0.1016302853822708,-7.668487071990967,L,False,True,0,R,50,,0.284,LeftResponse,incorrect,True,11.0
24,25,324.02566666666667,8871,323.813,323.819,323.825,0.4683292793545066,50.22523166235107,-0.4115117788314819,-44.77679443359375,-0.256592333316803,-28.962160110473636,-0.2235852628946304,-22.751100540161133,-0.17277392745018,-15.637426376342772,L,False,True,0,R,200,,0.327,RightResponse,correct,True,4.0
25,26,327.7526666666667,8879,327.342,327.348,327.352,0.3324672881537442,35.63546441279364,-0.2590927481651306,-28.3106746673584,-0.2413530945777893,-25.17452812194824,-0.2083397358655929,-21.64236640930176,-0.2312116399407386,-21.71219062805176,L,False,True,0,L,400,,0.388,RightResponse,incorrect,True,7.0
26,27,331.2116666666667,8886,331.2,331.209,331.214,0.5156899130272057,42.959941593459,-0.4876660704612732,-40.12921142578125,-0.2972385585308075,-22.794601440429688,-0.1676838994026184,-15.336328506469728,-0.1930989548563957,-18.293596267700195,L,False,True,0,R,0,,0.322,RightResponse,correct,True,9.0
27,28,335.02566666666667,8893,334.617,334.622,334.627,0.260475169326531,25.912863685245195,-0.2438892126083374,-25.428098678588867,-0.154955506324768,-15.357073783874512,-0.0914623737335205,-4.9888176918029785,-0.0889180898666381,-4.503678321838379,L,False,True,0,L,400,,0.255,LeftResponse,correct,True,10.0
28,29,339.3136666666667,8901,339.202,339.209,339.215,0.5552959052975891,55.05074796393975,-0.5104981064796448,-52.43452835083008,-0.3759548664093017,-35.58536911010742,-0.2185068093240261,-16.7691707611084,-0.2311792373657226,-20.416015625,L,False,True,0,R,100,,0.338,RightResponse,correct,True,14.0
29,30,343.25666666666666,12168,343.245,343.249,343.256,0.2512251606423323,24.88911661955165,-0.1194002628326416,-14.364935874938965,-0.2616899311542511,-33.213348388671875,-0.2210376858711242,-20.325273513793945,-0.3531385958194732,-33.09694290161133,L,False,True,0,R,0,,0.292,LeftResponse,incorrect,True,8.0
30,31,346.40866666666665,8919,346.395,346.402,346.409,0.5215335932231254,47.78980718238069,-0.4699648022651672,-43.78637313842773,-0.3201151192188263,-30.487306594848636,-0.226120263338089,-19.14730262756348,-0.2845616787672043,-23.99849510192871,L,False,True,0,L,0,,0.272,RightResponse,incorrect,True,11.0
31,32,350.10066666666665,12178,349.987,349.991,349.998,0.2297456544518401,24.715946753517727,0.1117801666259765,15.104211807250977,0.0813009142875671,8.54582405090332,-0.2007193565368652,-19.56376266479492,-0.1524458229541778,-7.252762317657471,L,False,True,0,R,100,,0.352,LeftResponse,incorrect,True,13.0
32,33,353.67766666666665,1308,353.665,353.671,353.675,0.2788797755341631,28.36894452327972,0.2413465976715088,25.635967254638672,0.2921869866549968,30.466064453125,-0.1397345662117004,-12.14883518218994,-0.0965472161769867,-11.271577835083008,L,False,True,0,L,0,,0.3,LeftResponse,correct,True,14.0
33,34,357.1956666666667,1315,357.136,357.142,357.147,0.3567425405852585,38.50313320694969,0.3531050086021423,38.382232666015625,0.4370138496160507,42.43112564086914,-0.0508143007755279,-3.04884934425354,-0.060978353023529,-7.460631370544434,L,False,True,0,R,50,,0.26,RightResponse,correct,True,14.0
34,35,360.63466666666665,1327,360.222,360.228,360.234,0.6420288533626306,65.5869819031127,0.5411267876625061,58.13116455078125,0.4751098081469536,45.45515823364258,-0.3455182313919067,-30.37136650085449,-0.1981814056634903,-17.161893844604492,L,False,True,0,R,400,,0.316,LeftResponse,incorrect,True,9.0
35,36,363.9986666666667,1337,363.786,363.792,363.799,0.3301997830470228,30.099027452081188,0.3124834895133972,29.862661361694336,0.4903393536806106,46.44684982299805,-0.1067050397396087,-3.764692544937134,-0.073680967092514,-7.9224853515625,L,False,True,0,L,200,,0.235,RightResponse,incorrect,True,3.0
36,37,368.07866666666666,8970,367.863,367.87,367.876,0.3333455344159587,29.02762080060861,-0.2642107903957367,-24.41159439086914,-0.1016255021095275,-8.961474418640137,-0.203253298997879,-15.70594882965088,-0.307435117661953,-24.322301864624023,L,False,True,0,R,200,,0.363,LeftResponse,incorrect,True,6.0
37,38,371.35066666666665,8979,371.342,371.347,371.352,0.4034603154066762,44.86317659683814,-0.3556339740753174,-40.94425964355469,-0.1651212573051452,-19.237136840820312,-0.1905379295349121,-18.337726593017575,-0.2667829841375351,-22.520654678344727,L,False,True,0,L,0,,0.339,LeftResponse,correct,True,13.0
38,39,375.0316666666667,8985,374.969,374.978,374.985,0.5363176664409661,44.63082753036518,-0.515674352645874,-42.7223014831543,-0.4140916764736175,-33.71837615966797,-0.1473655365407467,-12.91184425354004,-0.2388336639851331,-20.233867645263672,L,False,True,0,L,50,,0.348,RightResponse,incorrect,True,13.0
39,41,502.46066666666667,9194,502.447,502.454,502.459,0.5294788852696944,48.9933426990748,-0.4217378497123718,-42.543190002441406,-0.3582452721893787,-35.6396369934082,-0.3201329037547111,-24.29865455627441,-0.5081506296992302,-45.94165802001953,L,False,True,1,R,0,,0.382,LeftResponse,incorrect,True,12.0
40,42,505.93666666666667,12412,505.825,505.829,505.839,0.3013164997816157,27.94353816185286,-0.0914618670940399,-15.312813758850098,0.0558968931436538,2.2866978645324707,-0.2870999127626419,-23.374324798583984,-0.1880122274160385,-21.757736206054688,L,False,True,1,R,100,,0.301,RightResponse,correct,True,16.0
41,44,514.2006666666666,12426,513.79,513.796,513.804,0.4637097063950124,45.10826988124322,-0.317548394203186,-34.50293731689453,-0.2007222957909107,-26.19320678710937,-0.3379196785390377,-29.05689811706543,-0.2667732238769531,-24.15979385375977,L,False,True,1,R,400,,0.306,LeftResponse,incorrect,True,11.0
42,45,518.3726666666666,9223,518.36,518.365,518.368,0.1833814709538381,21.149575938741314,-0.1346432566642761,-14.988563537597656,-0.1117945797741413,-12.172666549682615,-0.1244988245889544,-14.921378135681152,-0.1549817621707916,-16.21414566040039,L,False,True,1,R,0,,0.259,RightResponse,correct,True,15.0
43,46,522.1566666666666,12436,521.739,521.745,521.75,0.2439567621686616,24.39897600297204,0.0050809383392333,-0.6466389894485474,-0.0177855566143989,0.2540794610977173,-0.2439038455486297,-24.390405654907227,-0.2972582131624222,-24.92149353027344,L,False,True,1,R,400,,0.362,RightResponse,correct,True,14.0
44,47,525.7336666666666,9237,525.624,525.632,525.637,0.3896891712809889,40.12055571995814,-0.327703058719635,-30.78369903564453,-0.1905505061149597,-18.54682922363281,-0.2108752131462097,-25.72980499267578,-0.2464454770088195,-24.89875602722168,L,False,True,1,R,100,,0.285,RightResponse,correct,True,15.0
45,48,530.6336666666667,9245,530.423,530.431,530.437,0.5581332189934354,55.09996339961078,-0.5157157778739929,-49.88522338867188,-0.4166885316371918,-39.68245315551758,-0.2134242877364158,-23.39808654785156,-0.2820130288600921,-27.231414794921875,L,False,True,1,L,200,,0.248,LeftResponse,correct,True,9.0
46,49,533.9646666666666,9256,533.904,533.91,533.917,0.4936097636362331,48.13939425477784,-0.4801863431930542,-47.81108856201172,-0.3455453664064407,-35.08578872680664,-0.1143314242362976,-5.612583160400391,-0.2362737655639648,-20.32486343383789,L,False,True,1,R,50,,0.396,RightResponse,correct,True,19.0
47,50,537.5866666666667,12461,537.177,537.182,537.192,0.2863330427979224,28.384929600461025,0.1880074739456176,25.406578063964844,0.3226763047277927,41.99156188964844,-0.2159624993801117,-12.65740966796875,-0.1727712899446487,-13.766310691833496,L,False,True,1,R,400,,0.238,RightResponse,correct,True,13.0
48,51,541.0626666666667,9268,540.951,540.956,540.962,0.3318753436650772,31.930219424193325,-0.2769124805927276,-28.314807891845703,-0.1981816552579403,-22.40513801574707,-0.1829227209091186,-14.75840663909912,-0.1905577331781387,-15.337058067321776,L,False,True,1,L,100,,0.377,LeftResponse,correct,True,14.0
49,52,544.8686666666666,1787,544.655,544.664,544.667,0.2562224334167249,25.611288727677344,0.2210428863763809,16.05288314819336,0.2083411067724228,19.540573120117188,-0.1295761466026306,-19.95602798461914,-0.1676795482635498,-14.966316223144531,L,False,True,1,R,200,,0.35,RightResponse,correct,True,8.0
50,53,548.7236666666666,1798,548.714,548.72,548.727,0.4518868326928122,45.10056969800979,0.3912430107593536,40.62562561035156,0.4522576481103897,41.55335998535156,-0.2261207997798919,-19.586217880249023,-0.1473605036735534,-12.84216022491455,L,False,True,1,L,0,,0.262,RightResponse,incorrect,True,14.0
51,54,554.1986666666667,9287,553.988,553.994,554.001,0.3961694884841873,37.073150944030544,-0.3785371780395508,-36.6528549194336,-0.2693100571632385,-23.674297332763672,-0.1168754398822784,-5.566574096679688,-0.1067038178443908,-4.596134185791016,L,False,True,1,L,200,,0.289,LeftResponse,correct,True,7.0
52,55,557.9786666666666,12495,557.916,557.922,557.931,0.3926637784532842,34.48414397195433,0.1956234574317932,19.239049911499023,0.251528263092041,20.37183952331543,-0.3404648378491401,-28.61844062805176,-0.2794229984283447,-19.883493423461918,L,False,True,1,L,50,,0.334,LeftResponse,correct,True,18.0
53,56,561.4766666666667,12502,561.417,561.422,561.429,0.3409174957519978,33.3744570457093,-0.15751513838768,-19.030902862548828,-0.0660604611039161,-12.334335327148438,-0.3023470193147659,-27.416767120361328,-0.2083272635936737,-20.25547409057617,L,False,True,1,L,50,,0.347,LeftResponse,correct,True,17.0
54,57,564.7946666666667,1844,564.734,564.741,564.743,0.2616906833808498,28.91439155334386,0.2108623385429382,18.10711479187012,0.1753142387606203,18.08580017089844,-0.1549809277057647,-22.542724609375,-0.116875022649765,-17.739097595214844,L,False,True,1,R,50,,0.36,RightResponse,correct,True,16.0
55,58,568.4876666666667,9311,568.426,568.433,568.438,0.4161758391727841,45.41164399855249,-0.3353611528873443,-37.16224670410156,-0.1854778118431568,-18.94045829772949,-0.2464451789855957,-26.099517822265625,-0.2616870105266571,-24.32117080688477,L,False,True,1,L,50,,0.22,LeftResponse,correct,True,15.0
56,59,571.8346666666666,9317,571.72,571.729,571.734,0.5784331537189213,55.54402330822767,-0.5233111679553986,-51.5913200378418,-0.2007210627198219,-20.21066665649414,-0.2464352548122406,-20.578489303588867,-0.2820002138614654,-29.42425346374512,L,False,True,1,R,100,,0.325,RightResponse,correct,True,13.0
57,60,576.9056666666667,9324,576.797,576.805,576.811,0.497659676180253,45.60357862594056,-0.4065055251121521,-37.18571853637695,-0.3785624057054519,-33.8141975402832,-0.2870860695838928,-26.39902877807617,-0.1499042809009552,-14.87494659423828,L,False,True,1,L,100,,0.334,LeftResponse,correct,True,12.0
58,61,580.2526666666666,12530,580.242,580.246,580.253,0.3342262816901483,32.17160799759009,0.1041615605354309,15.566593170166016,0.1702329330146312,17.762439727783203,-0.3175808191299438,-28.15481376647949,-0.2286706250160932,-17.508359909057617,L,False,True,1,L,0,,0.296,LeftResponse,correct,True,17.0
59,62,583.3836666666667,12536,583.323,583.329,583.339,0.5597502064204413,45.11483685993596,0.2235734760761261,24.69028663635254,0.1930989548563957,22.56674194335937,-0.5131619572639465,-37.75894927978516,-0.304884061217308,-22.797332763671875,L,False,True,1,R,50,,0.241,RightResponse,correct,True,14.0
60,63,586.7016666666667,1904,586.29,586.295,586.3,0.3480706015496105,36.04432036546415,0.2769321203231811,28.755651473999023,0.302353672683239,29.79652404785156,-0.2108595371246338,-21.73259162902832,-0.1092538088560104,-8.63868522644043,L,False,True,1,L,400,,0.242,LeftResponse,correct,True,12.0
61,64,590.1206666666667,1917,589.91,589.915,589.921,0.2612909504194572,27.75902026203982,0.2540771625936031,27.11698532104492,0.2718642875552177,26.401126861572266,0.0609734058380126,5.935681343078613,0.0736800730228424,4.503936290740967,L,False,True,1,R,200,,0.262,RightResponse,correct,True,6.0
62,65,593.8426666666667,1925,593.432,593.439,593.445,0.3436261700656379,35.27255862361844,0.3150542974472046,31.87505340576172,0.3099743900820613,29.05727767944336,-0.1371850371360778,-15.104117393493652,-0.101623386144638,-2.055569887161255,L,False,True,1,L,400,,0.254,LeftResponse,correct,True,11.0
63,66,597.2766666666666,9350,597.167,597.174,597.181,0.3785237938767736,30.64854357980065,-0.3556549549102783,-29.53776741027832,-0.2566162496805191,-26.83964157104492,-0.1295755207538604,-8.176400184631348,-0.0558937191963195,-2.0556154251098637,L,False,True,1,L,100,,0.244,LeftResponse,correct,True,11.0
64,67,601.1236666666666,12570,601.115,601.119,601.127,0.3433024007513921,36.45370016388088,0.1626056283712387,23.097551345825195,0.2972700679674744,32.89139938354492,-0.3023507036268711,-28.20240020751953,-0.0813027918338775,-8.569169044494629,L,False,True,1,L,0,,0.367,LeftResponse,correct,True,16.0
65,68,604.8666666666667,9357,604.456,604.464,604.47,0.6511450485935741,64.6372438300857,-0.5486871600151062,-55.21406936645508,-0.3531501442193985,-30.97223663330078,-0.350616991519928,-33.60624694824219,-0.4395287781953811,-35.40734100341797,L,False,True,1,L,400,,0.346,LeftResponse,correct,True,10.0
66,69,607.9316666666667,9360,607.923,607.927,607.932,0.2439692527523656,22.95742422761204,-0.2413627505302429,-22.63503837585449,-0.2515381649136543,-26.47041320800781,0.0355671048164367,3.8338446617126474,-0.0330285429954528,-4.827241897583008,L,False,True,1,L,0,,0.253,LeftResponse,correct,True,15.0
67,70,611.6486666666667,1975,611.437,611.443,611.448,0.2610047174443424,24.852946495855388,0.2235842496156692,21.757923126220703,0.3328393641859293,34.277225494384766,-0.134660854935646,-12.010900497436523,-0.2134132385253906,-19.401330947875977,L,False,True,1,L,200,,0.337,LeftResponse,correct,True,5.0
68,71,616.0286666666667,9371,615.818,615.827,615.835,0.8616557857671536,72.42446277638498,-0.8078164756298065,-68.86442565917969,-0.3252059370279312,-31.226959228515625,-0.2998053282499313,-22.427520751953125,-0.1422770321369171,-9.515832901000977,L,False,True,1,R,200,,0.24,RightResponse,correct,True,4.0
69,72,620.2756666666667,9377,619.866,619.873,619.882,0.5805783243105626,49.06193766211239,-0.5207930505275726,-42.934078216552734,-0.3277452439069748,-34.2296257019043,-0.2566043436527252,-23.74318122863769,0.0127031207084655,-0.3002550899982452,L,False,True,1,L,400,,0.371,LeftResponse,correct,True,9.0
70,73,623.8816666666667,12607,623.872,623.877,623.885,0.3069195085696427,32.29512872058711,-0.0940087288618087,-17.254104614257812,0.0711414068937301,-3.672519207000733,-0.2921676635742187,-27.29965591430664,-0.2693006694316864,-19.169965744018555,L,False,True,1,R,0,,0.325,LeftResponse,incorrect,True,14.0
71,74,627.9696666666666,9385,627.908,627.914,627.919,0.2704174536058084,28.06897491979275,-0.2413613498210907,-25.337114334106445,-0.1448234319686889,-17.970115661621094,-0.1219438314437866,-12.078824043273926,-0.1829168796539306,-18.984600067138672,L,False,True,1,R,50,,0.303,RightResponse,correct,True,13.0
72,75,632.2786666666667,2021,632.265,632.273,632.281,0.4395484478448315,33.345120971446654,0.3531677462160587,28.61840057373047,0.4751241654157638,41.25308990478516,-0.261678010225296,-17.113861083984375,-0.1829225718975067,-14.01961612701416,L,False,True,1,R,0,,0.227,LeftResponse,incorrect,True,17.0
73,76,636.5546666666667,9399,636.343,636.35,636.356,0.3937929013967342,37.55162919100127,-0.3836212754249573,-35.982967376708984,-0.3480708748102188,-37.948360443115234,-0.0889244973659515,-10.740154266357422,-0.1016274988651275,-8.476729393005371,L,False,True,1,L,200,,0.385,LeftResponse,correct,True,3.0
74,77,639.7556666666667,9406,639.647,639.652,639.656,0.2595324182637599,27.16709777781911,-0.2388130724430084,-25.93680763244629,-0.1727596521377563,-19.6317081451416,-0.1016139388084411,-8.08289623260498,-0.1702288389205932,-17.646541595458984,L,False,True,1,L,100,,0.229,LeftResponse,correct,True,10.0
75,78,644.9356666666666,9411,644.724,644.73,644.736,0.4143440046196296,41.65325144831053,-0.3811061531305313,-39.28854370117188,-0.3201120793819427,-31.71075820922852,-0.1626009047031402,-13.834872245788574,-0.2515329122543335,-20.23356819152832,L,False,True,1,R,200,,0.242,LeftResponse,incorrect,True,2.0
76,79,648.6286666666666,9422,648.519,648.525,648.531,0.4033821982182475,41.59739089835103,-0.3734671771526336,-39.30978393554688,-0.2693130820989609,-28.70968246459961,-0.1524449586868286,-13.604551315307615,-0.1371956169605255,-10.001004219055176,L,False,True,1,R,100,,0.243,LeftResponse,incorrect,True,9.0
77,81,723.1366666666667,2345,723.125,723.13,723.136,0.2762195521099643,27.62198912381734,0.2286670058965683,21.48081398010254,0.2362926432397216,23.652374267578125,-0.1549472212791443,-17.365163803100586,-0.2083448991179466,-19.51789665222168,L,False,True,2,L,0,,0.277,RightResponse,incorrect,True,20.0
78,82,726.3836666666667,9649,726.269,726.275,726.282,0.4356305791276845,46.6753689958105,-0.4090348482131958,-43.30563354492188,-0.261679470539093,-32.79668426513672,-0.1498816013336181,-17.412988662719727,-0.1244989037513732,-13.789581298828123,L,False,True,2,R,100,,0.365,LeftResponse,incorrect,True,12.0
79,83,731.0256666666667,9656,730.912,730.92,730.926,0.5914119033800732,56.08530184526162,-0.4724833965301513,-45.19242477416992,-0.3709035515785217,-34.54955291748047,-0.3557070135138929,-33.214542388916016,-0.2896337509155273,-26.168685913085938,L,False,True,2,R,100,,0.337,RightResponse,correct,True,15.0
80,84,734.4276666666667,9660,734.217,734.225,734.231,0.612868159981786,61.51439532118223,-0.5665496289730072,-57.116477966308594,-0.4878023117780685,-52.96017456054688,-0.2337282598018646,-22.84138298034668,-0.1499044597148895,-21.065265655517575,L,False,True,2,R,200,,0.267,RightResponse,correct,True,5.0
81,85,737.8666666666667,12854,737.655,737.661,737.668,0.4451602324046229,44.81677181248029,-0.1346527636051178,-19.30817222595215,-0.0660553872585296,-9.677103996276855,-0.4243068061769008,-40.44425201416016,-0.3963482081890106,-31.966779708862305,L,False,True,2,R,200,,0.363,RightResponse,correct,True,4.0
82,86,743.2416666666667,9671,742.817,742.822,742.827,0.2651979058887949,26.99676224776672,-0.2438812851905822,-25.358129501342773,-0.1676916740834713,-18.778722763061523,-0.1041722036898136,-9.26231288909912,-0.1041555404663086,-10.11535358428955,L,False,True,2,R,400,,0.26,RightResponse,correct,True,8.0
83,87,747.0506666666666,2417,746.636,746.643,746.649,0.405362717317844,34.79770087103791,0.3074239939451217,27.23175621032715,0.2972675561904907,24.46050453186035,-0.2642147243022918,-21.663597106933597,-0.2947220802307129,-22.196718215942383,L,False,True,2,R,400,,0.329,RightResponse,correct,True,7.0
84,88,750.6606666666667,2430,750.548,750.554,750.559,0.3352241675751952,34.49901707088244,0.2972534894943237,31.2266845703125,0.309970386326313,31.20512008666992,-0.1549696922302246,-14.665481567382812,-0.1067055463790893,-9.954631805419922,L,False,True,2,L,100,,0.369,LeftResponse,correct,True,14.0
85,89,754.8066666666667,2443,754.393,754.4,754.405,0.4276500675526448,48.0928535970957,0.4243085160851478,47.9744758605957,0.5411782413721085,54.25679016113281,0.0533560067415237,3.372274160385132,0.0660542845726013,4.619211196899414,L,False,True,2,R,400,,0.369,RightResponse,correct,True,6.0
86,90,758.9786666666666,12891,758.965,758.973,758.981,0.6783043859610821,62.04259638154716,-0.5055367052555084,-50.0223388671875,-0.4522133469581604,-56.00704193115234,-0.4522493556141853,-36.7021713256836,-0.2871025949716568,-24.899200439453125,L,False,True,2,R,0,,0.353,LeftResponse,incorrect,True,23.0
87,91,762.2556666666667,9704,762.144,762.15,762.157,0.4540032572632679,43.63908068412267,-0.4166373014450073,-40.92495346069336,-0.322633683681488,-35.77315139770508,-0.1803671717643737,-15.149836540222168,-0.3455465361475944,-26.170150756835938,L,False,True,2,L,100,,0.367,RightResponse,incorrect,True,13.0
88,92,765.3576666666667,9712,765.295,765.301,765.306,0.4037035753287397,39.796171320216125,-0.3074235320091247,-33.39850234985352,-0.325191855430603,-36.93064498901367,-0.2616626620292663,-21.63966941833496,-0.2388279438018798,-19.032379150390625,L,False,True,2,L,50,,0.35,LeftResponse,correct,True,12.0
89,93,768.4256666666666,9715,768.359,768.366,768.374,0.5685151016977592,56.453589016592005,-0.5640475302934647,-55.68879318237305,-0.4751187739893794,-36.54091262817383,-0.0711323022842407,-9.260994911193848,0.0304894521832466,4.250048637390137,L,False,True,2,R,50,,0.214,LeftResponse,incorrect,True,11.0
90,94,774.0626666666667,2489,773.649,773.655,773.661,0.3115898375076765,32.62017061769438,0.2642415389418602,29.14973258972168,0.2439089268445968,24.991500854492188,-0.1651200652122497,-14.641332626342772,-0.0101631507277488,-1.917141914367676,L,False,True,2,L,400,,0.232,RightResponse,incorrect,True,5.0
91,95,778.5176666666666,2503,778.106,778.112,778.118,0.4420767791749084,45.27900549871853,0.3201379962265491,30.650989532470703,0.4242955297231674,40.88216781616211,-0.3048664331436157,-33.32724380493164,-0.3023527190089226,-25.82364273071289,L,False,True,2,R,400,,0.36,RightResponse,correct,True,8.0
92,96,781.8106666666666,9734,781.749,781.755,781.76,0.4115542868561589,43.97433729701566,-0.3455383852124214,-37.46402740478516,-0.261674553155899,-27.8071403503418,-0.2235624194145202,-23.02583312988281,-0.1905593872070312,-18.36300277709961,L,False,True,2,L,50,,0.382,LeftResponse,correct,True,14.0
93,97,785.1666666666666,12930,785.103,785.11,785.117,0.4474857461310746,44.29774306381008,-0.2540758699178695,-27.80971908569336,-0.2108554244041443,-27.27408599853516,-0.3683598041534424,-34.480567932128906,-0.2464548945426941,-24.80716133117676,L,False,True,2,R,50,,0.329,LeftResponse,incorrect,True,13.0
94,98,788.5306666666667,12934,788.418,788.425,788.434,0.5112888541615174,44.02897065685147,-0.2235729694366455,-27.43798828125,-0.0558922290802001,-10.023460388183594,-0.4598167240619659,-34.43409729003906,-0.4243011884391308,-27.60188865661621,L,False,True,2,L,100,,0.34,LeftResponse,correct,True,16.0
95,99,792.2606666666667,9754,791.847,791.854,791.86,0.3557781580159354,34.27354836688392,-0.3226763904094696,-31.759456634521484,-0.3633144944906235,-33.51311492919922,-0.1498600840568542,-12.884604454040527,-0.1143303513526916,-13.003704071044922,L,False,True,2,L,400,,0.255,RightResponse,incorrect,True,7.0
96,100,796.7486666666666,12951,796.638,796.642,796.651,0.4217718867585219,42.12371803855713,0.2185062244534492,28.8493709564209,0.2133838534355163,28.89040756225586,-0.3607583045959472,-30.69399642944336,-0.2489759027957916,-16.42164421081543,L,False,True,2,R,100,,0.351,LeftResponse,incorrect,True,15.0
97,101,801.1336666666667,9771,801.121,801.13,801.137,0.628309198211127,55.94079153126284,-0.5945320501923561,-53.609371185302734,-0.2006855010986328,-28.498090744018555,-0.2032340764999389,-15.981472969055176,-0.0482745021581649,-8.546219825744629,L,False,True,2,L,0,,0.285,LeftResponse,correct,True,26.0
98,102,804.4216666666666,2586,804.408,804.416,804.426,0.6729438339858844,47.47527488887064,0.5615049079060555,42.29216003417969,0.5106599628925323,54.02155303955078,-0.370898425579071,-21.570232391357425,-0.193092793226242,-6.813777923583984,L,False,True,2,R,0,,0.348,LeftResponse,incorrect,True,25.0
99,103,808.9316666666667,2594,808.52,808.526,808.539,0.60096954163537,48.18071770333149,0.5691072195768356,45.89437103271485,0.5894071459770203,49.03304290771485,-0.1930838227272033,-14.665887832641602,-0.0482718050479888,-0.5312259197235107,L,False,True,2,L,400,,0.304,LeftResponse,correct,True,10.0
100,104,813.1156666666667,2609,812.904,812.911,812.919,0.4657179849381928,40.63925373284568,0.4598560184240341,40.16535186767578,0.4014431983232498,31.898277282714844,-0.0736592411994934,6.188170433044434,-0.1600699797272682,-8.800384521484375,L,False,True,2,R,200,,0.231,LeftResponse,incorrect,True,3.0
101,105,816.7246666666666,2622,816.662,816.671,816.68,0.7031236386396702,56.33045197931122,0.6834655106067657,55.897159576416016,0.6605806723237038,60.56066131591797,-0.1650992035865783,-6.97333288192749,-0.1473618596792221,-10.48633861541748,L,False,True,2,R,50,,0.253,RightResponse,correct,True,16.0
102,106,820.8136666666667,2634,820.753,820.76,820.767,0.4719179348645633,43.11509611370839,0.4420859776437282,39.75066757202149,0.3556908965110779,31.3193359375,-0.1651257872581482,-16.69718360900879,-0.1067119538784027,-11.502730369567873,L,False,True,2,R,50,,0.348,LeftResponse,incorrect,True,15.0
103,107,824.3106666666666,13006,824.298,824.303,824.311,0.4587400660157816,46.10521548989426,-0.1397435795515775,-22.728471755981445,-0.0457342995796352,-13.512398719787598,-0.4369372725486755,-40.11368179321289,-0.3785753846168518,-32.452537536621094,L,False,True,2,L,0,,0.352,LeftResponse,correct,True,28.0
104,108,828.7526666666666,9817,828.537,828.545,828.55,0.5052036853807604,51.83111287066249,-0.4191820025444031,-41.24798583984375,-0.3048648834228515,-33.88138198852539,-0.2819879651069641,-31.385791778564453,-0.0990873277187347,-8.5922212600708,L,False,True,2,L,200,,0.24,LeftResponse,correct,True,6.0
105,109,832.0586666666667,9826,831.948,831.955,831.962,0.6219020556572905,59.49853760941203,-0.5919989496469498,-59.13081741333008,-0.4293563365936279,-47.27772521972656,-0.1905240416526794,-6.604726314544678,-0.2693207040429115,-23.236513137817383,L,False,True,2,R,100,,0.357,LeftResponse,incorrect,True,18.0
106,110,836.7426666666667,2672,836.53,836.537,836.543,0.373831702562953,36.53236023867737,0.3683988898992538,36.26234436035156,0.4319325238466263,35.640316009521484,-0.0635011792182922,-4.433477878570557,-0.0431934520602226,-7.529976844787598,L,False,True,2,L,200,,0.284,LeftResponse,correct,True,5.0
107,111,840.3856666666667,9842,840.371,840.378,840.387,0.6397722691517559,43.21510600598111,-0.4649533275514841,-36.42508316040039,-0.236258327960968,-19.422889709472656,-0.4394621253013611,-23.25421905517578,-0.3938216716051101,-24.507061004638672,L,False,True,2,L,0,,0.235,LeftResponse,correct,True,27.0
108,112,843.8576666666667,2689,843.644,843.651,843.658,0.4293711380973919,35.68397241826765,0.3074352964758873,28.41065788269043,0.3048916701227426,24.460681915283203,-0.2997384071350097,-21.591211318969727,-0.2058019191026687,-11.84924602508545,L,False,True,2,L,200,,0.227,LeftResponse,correct,True,4.0
109,113,847.1966666666667,13048,847.175,847.186,847.188,0.3459421633907866,28.79383187770183,-0.0177854001522064,18.75536155700684,0.0025405287742614,18.499420166015625,-0.3454846739768982,-21.847681045532227,-0.2998099960386753,-11.410202026367188,L,False,True,2,R,0,,0.228,LeftResponse,incorrect,True,26.0
110,114,851.1396666666667,9859,850.928,850.933,850.939,0.3755927872370415,39.899444955377255,-0.350624430924654,-39.08142852783203,-0.3048898130655288,-35.57040023803711,0.1346567869186401,8.037888526916504,0.1499065072275698,11.479734420776367,L,False,True,2,R,200,,0.345,LeftResponse,incorrect,True,3.0
111,115,855.1156666666667,2720,854.904,854.91,854.917,0.4042297352434335,38.27367848636609,0.3861941546201706,38.15755844116211,0.3938174759969115,35.94024658203125,-0.1193974614143371,-2.9791271686553955,-0.0508158970624208,1.5937713384628296,L,False,True,2,L,200,,0.355,LeftResponse,correct,True,6.0
112,116,859.2786666666667,2735,858.865,858.871,858.876,0.3635210009262543,37.55415912359777,0.271864116191864,28.479923248291016,0.3607907146215439,36.49491500854492,-0.2413243055343628,-24.478742599487305,-0.11941559612751,-7.968730926513672,L,False,True,2,L,400,,0.313,LeftResponse,correct,True,9.0
113,117,863.4836666666666,13081,863.373,863.377,863.385,0.4136133380890893,45.42890982155734,-0.2489902228116989,-33.72208786010742,-0.2895994782447815,-37.804298400878906,-0.3302724063396454,-30.44021415710449,-0.2159439325332641,-19.63150405883789,L,False,True,2,L,100,,0.334,LeftResponse,correct,True,21.0
114,121,965.7576666666666,10053,965.645,965.651,965.658,0.4081034568317289,41.34870342944107,-0.4038980007171631,-41.31336212158203,-0.4802068769931793,-50.63082885742188,0.0584366023540496,1.7092061042785645,0.1143258512020111,6.582437038421631,L,False,True,3,L,100,,0.255,LeftResponse,correct,True,20.0
115,122,969.3836666666667,10058,969.269,969.277,969.284,0.5317433044491657,46.71168003445645,-0.5157157778739929,-45.77496337890625,-0.3836565241217613,-34.48523712158203,-0.1295692026615142,-9.307726860046388,-0.1778397858142852,-15.220247268676758,L,False,True,3,R,100,,0.346,RightResponse,correct,True,19.0
116,123,972.7816666666666,10064,972.718,972.726,972.733,0.6699429375954196,63.42889703945757,-0.6123123690485954,-58.55233383178711,-0.4370103999972343,-46.93468475341797,-0.2718402147293091,-24.38953018188477,-0.4141109883785248,-33.720367431640625,L,False,True,3,L,50,,0.383,LeftResponse,correct,True,17.0
117,124,976.7406666666667,10069,976.528,976.534,976.541,0.5216929736758489,48.06503678001501,-0.4725516587495804,-45.22271347045898,-0.4344715923070907,-52.13190078735352,0.2210395634174347,16.28354835510254,0.0127028822898864,0.5312109589576721,L,False,True,3,L,200,,0.306,LeftResponse,correct,True,5.0
118,126,983.0186666666667,10080,982.958,982.966,982.971,0.559512643091559,53.359162367415365,-0.4318946003913879,-39.794803619384766,-0.3379201106727123,-32.221282958984375,-0.3556985408067703,-35.546783447265625,-0.3988881707191467,-32.70543670654297,L,False,True,3,R,50,,0.232,RightResponse,correct,True,16.0
119,127,986.6616666666666,3032,986.547,986.553,986.557,0.3331774615949914,35.06170272199643,0.2184886336326599,20.92483329772949,0.3023527786135673,31.82909393310547,-0.2515351623296737,-28.133153915405277,-0.1067081987857818,-10.37057113647461,L,False,True,3,R,100,,0.285,RightResponse,correct,True,18.0
120,128,989.8216666666667,10093,989.812,989.817,989.822,0.3542773144182772,37.4830444045428,-0.2616731524467468,-30.92511558532715,-0.1626104691531509,-18.7556266784668,-0.2388295978307724,-21.180553436279297,-0.2667797729372978,-22.15087890625,L,False,True,3,R,0,,0.287,RightResponse,correct,True,28.0
121,129,993.2736666666667,13262,992.863,992.868,992.877,0.4161176697280995,40.8174922042461,-0.3150356411933899,-34.62179183959961,-0.1956385374069214,-24.414356231689453,-0.271857425570488,-21.61941719055176,-0.2312083020806312,-18.686153411865234,L,False,True,3,R,400,,0.295,RightResponse,correct,True,8.0
122,130,997.0826666666667,10108,997.071,997.08,997.087,0.6407523479920954,59.53380328520297,-0.5995237231254578,-57.36722946166992,-0.4471725560724735,-49.52156829833984,-0.2261302210390567,-15.914607048034668,-0.1575200259685516,-13.488659858703612,L,False,True,3,R,0,,0.217,LeftResponse,incorrect,True,27.0
123,131,1000.7136666666667,3056,1000.703,1000.708,1000.714,0.4243552154994172,51.064438025979925,0.4242334961891174,51.03734970092773,0.4420886160805821,45.3867416381836,-0.0101631507277488,-1.6630593538284302,-0.0965440571308136,-11.2711763381958,L,False,True,3,L,0,,0.363,LeftResponse,correct,True,30.0
124,132,1004.4606666666667,10119,1004.242,1004.25,1004.254,0.3506888250440644,34.96874925078745,-0.2591317594051361,-24.45852279663086,-0.0330303264781832,-1.1087100505828855,-0.2362908869981765,-24.99188041687012,-0.2921714186668396,-26.306947708129883,L,False,True,3,R,200,,0.384,LeftResponse,incorrect,True,4.0
125,133,1010.4016666666666,3073,1009.984,1009.991,1009.996,0.2749185790511232,24.21694043426388,0.2463870048522949,21.959732055664062,0.1524339914321899,18.153520584106445,-0.1219576522707939,-10.209327697753906,-0.0686006546020507,-7.275835037231445,L,False,True,3,R,400,,0.344,RightResponse,correct,True,7.0
126,135,1018.7486666666666,10142,1018.537,1018.543,1018.55,0.3372656647443059,32.86748370903314,-0.3302150368690491,-32.305545806884766,-0.2489965753629803,-25.477130889892575,0.0686014434322714,6.05171012878418,0.1905491948127746,16.075359344482422,L,False,True,3,R,200,,0.266,RightResponse,correct,True,7.0
127,136,1022.8416666666667,10150,1022.631,1022.635,1022.64,0.2729350628386814,30.398838613723445,-0.2641730308532715,-29.37305450439453,-0.1753082871437072,-21.018461227416992,-0.0686014452949166,-7.830265522003174,-0.1753081083297729,-16.05259895324707,L,False,True,3,L,200,,0.291,RightResponse,incorrect,True,6.0
128,137,1026.4306666666666,10156,1026.316,1026.323,1026.329,0.5352829595620335,57.45031740934383,-0.4851731061935425,-53.69051742553711,-0.2591584958136081,-27.555835723876957,-0.2261302806437015,-20.441802978515625,-0.0889218747615814,-5.196755409240723,L,False,True,3,R,100,,0.334,RightResponse,correct,True,17.0
129,138,1034.2076666666665,10166,1034.094,1034.1,1034.106,0.3383362303205982,34.13732743987227,-0.3327956795692444,-33.85704040527344,-0.4978967905044555,-53.41460800170898,-0.0609790161252021,-4.365540027618408,-0.0279416441917419,-7.274194717407227,L,False,True,3,L,100,,0.376,LeftResponse,correct,True,16.0
130,139,1039.0706666666665,3141,1039.056,1039.062,1039.068,0.4227966203590312,50.214342846480456,0.4216959476470947,49.42072677612305,0.3912638276815414,41.04304885864258,-0.0304878652095794,-8.892243385314941,-0.0381050705909729,-3.8336057662963863,L,False,True,3,L,0,,0.364,LeftResponse,correct,True,29.0
131,141,1046.3026666666665,3155,1045.89,1045.897,1045.903,0.2947981944948649,27.715971353978443,0.2946229577064514,27.70730781555176,0.3303016275167465,31.967723846435547,-0.0101630836725234,0.6929370164871216,0.0355689227581024,2.6330394744873047,L,False,True,3,L,400,,0.248,LeftResponse,correct,True,6.0
132,142,1051.6436666666666,10196,1051.43,1051.436,1051.442,0.3995122357367774,40.151837367917935,-0.3327942490577698,-32.379024505615234,-0.2413608431816101,-25.244701385498047,-0.2210384905338287,-23.743816375732425,-0.2693170011043548,-24.344953536987305,L,False,True,3,L,200,,0.383,LeftResponse,correct,True,9.0
133,143,1055.8616666666665,10202,1055.847,1055.855,1055.863,0.7736740618543019,76.98560917514132,-0.7696547508239746,-76.5501937866211,-0.5259174704551697,-52.221946716308594,-0.078759878873825,-8.176298141479492,0.0660566091537475,-2.009429454803467,L,False,True,3,L,0,,0.296,LeftResponse,correct,True,28.0
134,144,1061.6606666666667,10210,1061.45,1061.456,1061.462,0.414617086819235,42.08376581509296,-0.4114913940429687,-41.81914520263672,-0.2794862948358059,-26.93232536315918,0.0508149713277816,4.711946487426758,0.0050806403160095,-1.0854040384292605,L,False,True,3,L,200,,0.356,RightResponse,incorrect,True,8.0
135,145,1065.2746666666665,10216,1065.263,1065.271,1065.278,0.3963249115022981,34.910051683670545,-0.3912016153335571,-32.28492736816406,-0.4065132066607475,-38.80355072021485,-0.063519537448883,-13.281384468078612,0.0228649973869323,4.111111640930176,L,False,True,3,R,0,,0.258,RightResponse,correct,True,27.0
136,146,1070.3046666666667,13394,1069.895,1069.899,1069.907,0.3736297361000096,39.033914526307335,-0.1143218278884887,-21.96406936645508,-0.0711401998996734,-15.613731384277344,-0.3557101339101791,-32.268035888671875,-0.274383932352066,-24.944299697875977,L,False,True,3,R,400,,0.348,LeftResponse,incorrect,True,5.0
137,147,1073.7186666666666,10232,1073.653,1073.661,1073.667,0.5279132570797793,53.41568303111816,-0.4903256595134735,-49.98004531860352,-0.3455212116241455,-32.42711639404297,-0.1956352591514587,-18.847553253173828,-0.2896146774291992,-24.20404624938965,L,False,True,3,L,50,,0.283,LeftResponse,correct,True,14.0
138,148,1077.4486666666667,10236,1077.034,1077.043,1077.049,0.7372377323410102,67.9022893789375,-0.6757612526416779,-63.23567962646485,-0.4725547432899475,-38.24698257446289,-0.2947307303547859,-24.738021850585938,-0.2972464859485626,-17.945655822753906,L,False,True,3,L,400,,0.319,LeftResponse,correct,True,8.0
139,149,1080.9456666666665,10242,1080.532,1080.542,1080.549,0.6151305614430074,54.78973050445493,-0.6070968508720398,-52.744815826416016,-0.4649605900049209,-44.23213958740234,-0.0990909747779369,-14.828990936279297,-0.1168712973594665,-14.320060729980469,L,False,True,3,R,400,,0.382,RightResponse,correct,True,7.0
140,150,1085.4926666666665,3238,1085.431,1085.437,1085.443,0.3814209229191597,39.52468205884388,0.3605329990386963,38.8231086730957,0.4192212894558906,36.60983276367188,-0.1244904696941375,-7.413954734802246,-0.1727572083473205,-18.01488304138184,L,False,True,3,R,50,,0.337,LeftResponse,incorrect,True,13.0
141,151,1089.0306666666665,13420,1088.917,1088.922,1088.93,0.4569359921993108,45.48102677344853,-0.1930714845657348,-26.28221702575684,-0.2693154960870743,-31.96646499633789,-0.414142370223999,-37.118309020996094,-0.4090482592582702,-39.42702102661133,L,False,True,3,L,100,,0.297,LeftResponse,correct,True,15.0
142,152,1092.5826666666665,10265,1092.371,1092.378,1092.384,0.5097310922422849,46.67197794008905,-0.4343416094779968,-42.51092147827149,-0.424292653799057,-46.0787239074707,-0.2667829692363739,-19.26382827758789,-0.315033495426178,-26.260711669921875,L,False,True,3,R,200,,0.283,RightResponse,correct,True,11.0
143,153,1096.1046666666666,10270,1096.043,1096.049,1096.056,0.5675977867278836,60.614096891097645,-0.5613709092140198,-60.063209533691406,-0.4674983844161033,-40.67525863647461,-0.0838447958230972,-8.153502464294434,-0.1854708790779113,-17.230615615844727,L,False,True,3,R,50,,0.31,LeftResponse,incorrect,True,16.0
144,154,1099.4646666666665,10276,1099.4,1099.406,1099.411,0.4120214422022051,41.82535542265218,-0.3301829099655151,-35.5355339050293,-0.2439123094081878,-21.642454147338867,-0.2464567199349403,-22.058698654174805,-0.2312066853046417,-23.3515682220459,L,False,True,3,L,50,,0.381,LeftResponse,correct,True,19.0
145,155,1106.0016666666666,3282,1105.786,1105.793,1105.8,0.392567427571274,35.97131785699796,0.3835089802742004,35.00251007080078,0.3328428119421005,27.394311904907227,-0.0838453769683837,-8.29216480255127,0.0558939278125762,5.381548404693604,L,False,True,3,R,200,,0.362,LeftResponse,incorrect,True,10.0
146,156,1109.4356666666665,3290,1109.371,1109.378,1109.384,0.4662594035851939,42.36895454142306,0.3505539894104004,31.66057014465332,0.4192257709801197,38.6658821105957,-0.3074243515729904,-28.15557861328125,-0.2261088788509369,-16.190433502197266,L,False,True,3,R,50,,0.378,LeftResponse,incorrect,True,18.0
147,157,1113.5286666666666,3299,1113.116,1113.123,1113.131,0.4885118137044917,48.297648484922526,0.4825286269187927,47.260536193847656,0.5843754410743713,52.91721725463867,0.0762228071689605,9.955127716064451,-0.0076221227645874,-0.5312404632568359,L,False,True,3,L,400,,0.33,LeftResponse,correct,True,6.0
148,158,1117.2676666666666,10305,1117.154,1117.161,1117.168,0.4921483512645455,52.6264558978249,-0.4876948595046997,-51.77161407470703,-0.4217634918168187,-46.91130828857422,-0.0660584867000579,-9.446895599365234,-0.0482716858386993,-6.744183540344238,L,False,True,3,R,100,,0.215,RightResponse,correct,True,14.0
149,159,1120.8516666666665,3313,1120.74,1120.747,1120.754,0.3923026695670224,35.786771898571416,0.3911160826683044,35.6948127746582,0.6199470311403275,53.31010818481445,0.0304892510175704,2.563861131668091,-0.017783761024475,-1.501240611076355,L,False,True,3,L,100,,0.208,LeftResponse,correct,True,13.0
150,161,1255.8246666666666,3550,1255.811,1255.816,1255.822,0.3495033506497814,37.89627455680653,0.3328147530555725,35.637332916259766,0.381075382232666,38.26933288574219,-0.1067095696926117,-12.888294219970703,-0.040650188922882,-3.556887626647949,L,False,True,4,L,0,,0.218,LeftResponse,correct,True,26.0
151,162,1259.7176666666667,10533,1259.653,1259.659,1259.666,0.4742058209937615,46.62721417374024,-0.3937703371047973,-38.63822937011719,-0.2768341302871704,-29.99238395690918,-0.2642273306846618,-26.09950828552246,-0.2845332324504852,-23.99628448486328,L,False,True,4,L,50,,0.312,LeftResponse,correct,True,21.0
152,163,1263.1026666666667,10538,1263.091,1263.098,1263.106,0.534883422298227,49.99575723445999,-0.5207956433296204,-48.82346725463867,-0.4724394679069519,-49.18458557128906,0.1219515204429626,10.763121604919434,0.0330272316932678,0.48500856757164,L,False,True,4,L,0,,0.292,LeftResponse,correct,True,25.0
153,165,1270.5006666666666,10551,1270.088,1270.093,1270.099,0.332986821346225,34.51903796237372,-0.3328316956758499,-34.50728225708008,-0.1955671310424804,-18.81794548034668,0.0101629495620727,0.9008069038391112,0.0228660702705383,-2.30969500541687,L,False,True,4,R,400,,0.246,LeftResponse,incorrect,True,5.0
154,166,1273.5486666666666,10557,1273.438,1273.443,1273.449,0.3977268577397276,45.64938663967683,-0.3683951050043106,-43.28344345092773,-0.2844645380973816,-31.908933639526367,-0.1499056369066238,-14.50551700592041,-0.0990893095731735,-10.440193176269531,L,False,True,4,L,100,,0.399,LeftResponse,correct,True,12.0
155,167,1276.4546666666665,10570,1276.39,1276.397,1276.402,0.3565438961685686,32.37274830795149,-0.2946762442588806,-26.926984786987305,-0.2209539413452148,-22.39516830444336,-0.2007223479449749,-17.970317840576172,-0.2667639255523681,-25.983482360839844,L,False,True,4,R,50,,0.24,RightResponse,correct,True,20.0
156,168,1279.5896666666665,10576,1279.374,1279.38,1279.386,0.3120151514881303,30.521169329949068,-0.30741947889328,-30.118276596069336,-0.2234961986541748,-19.648632049560547,0.0533546507358551,4.942791938781738,0.0330265760421752,0.1616717427968979,L,False,True,4,R,200,,0.257,RightResponse,correct,True,13.0
157,169,1282.9326666666666,13702,1282.82,1282.823,1282.83,0.3021589688810542,32.52715119640574,0.1016163825988769,19.191883087158203,0.1193759441375732,20.08871459960937,-0.2845595777034759,-26.26189613342285,-0.3887299597263336,-40.62865829467773,L,False,True,4,R,100,,0.23,LeftResponse,incorrect,True,11.0
158,170,1285.8256666666666,13709,1285.811,1285.82,1285.826,0.574334523541126,47.219834095925016,-0.4319027662277221,-40.55693817138672,-0.2259992361068725,-17.70546531677246,-0.3785764724016189,-24.18362045288086,-0.2718584835529327,-23.166807174682617,L,False,True,4,R,0,,0.206,RightResponse,correct,True,24.0
159,171,1290.6556666666665,10595,1290.441,1290.447,1290.454,0.3910437859776233,40.48141888345676,-0.3886509537696838,-40.36643600463867,-0.0863690972328186,-9.93024730682373,-0.0431935028173029,-3.0489537715911865,-0.0508137345314025,-3.0257418155670166,L,False,True,4,R,200,,0.375,LeftResponse,incorrect,True,12.0
160,172,1294.0236666666665,13723,1293.614,1293.62,1293.625,0.4799893076567612,53.978073568607726,-0.3938165390864014,-43.97808837890625,-0.381005585193634,-31.519451141357425,-0.274405300617218,-31.29792594909668,-0.3988824784755707,-33.352046966552734,L,False,True,4,L,400,,0.249,LeftResponse,correct,True,8.0
161,173,1297.1376666666665,10610,1297.124,1297.129,1297.136,0.2967702125328969,26.325931906790736,-0.2769205868244171,-25.428831100463867,-0.1371176242828369,-13.457982063293455,-0.1067124530673027,-6.813900470733643,-0.3759629726409912,-34.80268859863281,L,False,True,4,R,0,,0.246,RightResponse,correct,True,23.0
162,174,1299.9566666666665,3683,1299.945,1299.95,1299.956,0.5227980741181034,55.431934421558985,0.3683927059173584,40.142215728759766,0.1752538084983825,18.425657272338867,-0.3709509947802871,-38.22697830200195,-0.414140023291111,-38.36539459228516,L,False,True,4,R,0,,0.213,LeftResponse,incorrect,True,22.0
163,175,1303.4576666666665,3690,1303.396,1303.402,1303.407,0.4171941561540231,42.142400277540105,0.3328364491462707,33.99982452392578,0.3454647660255432,37.47934341430664,-0.2515369993634522,-24.89967536926269,-0.3099553883075714,-30.256616592407227,L,False,True,4,R,50,,0.309,RightResponse,correct,True,19.0
164,176,1306.9016666666666,13741,1306.788,1306.793,1306.802,0.3769293681537638,34.59604565785771,-0.1905516386032104,-22.866113662719727,-0.0889058113098144,-14.386374473571776,-0.3252165764570236,-25.962034225463867,-0.2896294295787811,-24.06667137145996,L,False,True,4,L,100,,0.245,LeftResponse,correct,True,14.0
165,177,1311.3106666666665,10631,1311.1,1311.105,1311.111,0.3802327547396957,43.35900062985357,-0.3785653710365295,-43.23825454711914,-0.2692316770553589,-30.15586853027344,-0.0355697572231292,-3.233617067337036,-0.1143314242362976,-8.19957160949707,L,False,True,4,L,200,,0.395,LeftResponse,correct,True,15.0
166,178,1314.8486666666665,13755,1314.84,1314.842,1314.854,0.4227329212783837,39.98668798388865,-0.160069104284048,-31.967517852783203,-0.0431752204895019,-16.000064849853516,-0.3912556767463684,-24.021095275878903,-0.2362796068191528,-14.528074264526367,L,False,True,4,L,0,,0.376,LeftResponse,correct,True,25.0
167,179,1319.2416666666666,10639,1319.129,1319.136,1319.144,0.3805499889393478,32.92269119767008,-0.3760362863540649,-32.12944412231445,-0.3657534718513489,-30.225404739379883,-0.0584380477666854,-7.1834821701049805,0.0431920289993286,4.457786083221436,L,False,True,4,R,100,,0.256,LeftResponse,incorrect,True,13.0
168,180,1323.5836666666667,10645,1323.172,1323.177,1323.182,0.24896931840825,27.397339426914307,-0.2261284366250038,-25.0843563079834,-0.1854382753372192,-17.25066375732422,-0.1041712611913681,-11.017680168151855,-0.0152437388896942,-2.494438886642456,L,False,True,4,L,400,,0.305,LeftResponse,correct,True,7.0
169,181,1328.3056666666666,3734,1328.091,1328.098,1328.103,0.3170567133496765,29.940562823704383,0.2947297650389373,28.08707618713379,0.2387728095054626,23.207761764526367,-0.1168731153011322,-10.370798110961914,-0.1473594307899475,-16.029415130615234,L,False,True,4,L,200,,0.25,LeftResponse,correct,True,14.0
170,182,1332.3726666666666,10666,1331.96,1331.968,1331.975,0.621631955435371,59.07528154716137,-0.6148660480976105,-58.899784088134766,-0.3098732829093933,-34.10463333129883,-0.0914660096168518,-4.550200462341309,0.1321183145046234,13.581377983093262,L,False,True,4,L,400,,0.351,LeftResponse,correct,True,6.0
171,183,1335.2376666666667,3754,1335.173,1335.181,1335.186,0.2920186165717071,28.826508031293503,0.2616967484354973,24.830102920532227,0.4444425702095032,36.41097640991211,0.1295750141143798,14.643549919128418,0.1981570720672607,16.02814292907715,L,False,True,4,L,50,,0.207,LeftResponse,correct,True,18.0
172,184,1338.3056666666666,10679,1338.242,1338.25,1338.258,0.6012999534327184,57.94872266226992,-0.5970766693353653,-57.813961029052734,-0.1270104646682739,-7.851426124572754,0.0711413025856018,3.949730157852173,0.0,1.5474759340286257,L,False,True,4,L,50,,0.356,LeftResponse,correct,True,17.0
173,185,1341.4826666666665,3773,1341.269,1341.275,1341.283,0.5551122058985425,61.82780892545918,0.5538023710250854,61.52407455444336,0.5335240364074707,51.597503662109375,0.038111612200737,6.120964527130127,-0.1117845177650451,-6.928813457489014,L,False,True,4,R,200,,0.31,LeftResponse,incorrect,True,13.0
174,186,1345.1126666666667,10687,1345.001,1345.007,1345.015,0.5167027447805642,52.63444757078023,-0.4929103851318359,-51.39298629760742,-0.5104568600654602,-46.68495559692383,-0.1549873501062393,-11.364243507385254,0.0558966100215911,4.134510040283203,L,False,True,4,R,100,,0.393,LeftResponse,incorrect,True,16.0
175,187,1349.7136666666665,10693,1349.303,1349.311,1349.319,0.544876328725792,49.37220437547678,-0.5437140145804733,-49.35923004150391,-0.5181142091751099,-44.16682052612305,0.0355708301067352,-1.1318014860153198,-0.1372009962797165,-9.331514358520508,L,False,True,4,R,400,,0.384,RightResponse,correct,True,5.0
176,188,1353.5896666666665,10700,1353.175,1353.182,1353.188,0.4800973048471636,45.63687585493423,-0.3531684502959251,-34.34679412841797,-0.2615771293640136,-24.102479934692383,-0.32521603256464,-30.05032730102539,-0.1956283450126648,-17.368837356567383,L,False,True,4,R,400,,0.258,LeftResponse,incorrect,True,4.0
177,189,1357.6406666666664,13821,1357.527,1357.532,1357.541,0.4512167828895898,41.43836668123403,-0.2871088609099388,-29.58863639831543,-0.1396794319152832,-16.438098907470703,-0.3480877578258514,-29.011219024658203,-0.2464480996131897,-20.718360900878903,L,False,True,4,L,100,,0.38,LeftResponse,correct,True,19.0
178,190,1360.8466666666666,10711,1360.833,1360.84,1360.848,0.4016838025261055,34.89365398391537,-0.3684124946594238,-32.49888229370117,-0.2590457201004028,-25.30428123474121,-0.1600690819323063,-12.70392608642578,-0.1524428427219391,-15.036474227905272,L,False,True,4,R,0,,0.303,LeftResponse,incorrect,True,24.0
179,191,1364.3806666666665,10717,1364.166,1364.173,1364.179,0.294046100796109,25.779994150766225,-0.287103421986103,-25.315120697021484,-0.2920721769332886,-25.997034072875977,-0.0635195598006248,-4.873680591583252,0.0076220035552978,0.7391040921211243,L,False,True,4,L,200,,0.255,LeftResponse,correct,True,16.0
180,192,1367.4656666666665,7351,1367.057,1367.061,1367.077,0.5431274867989382,41.042766197238585,-0.1702258288860321,-28.91795921325684,-0.0914168357849121,-17.174602508544922,0.5157621875405312,29.124908447265625,0.5004671514034271,22.446941375732425,L,False,True,4,R,400,,0.2,LeftResponse,incorrect,True,7.0
181,193,1370.6006666666665,13841,1370.49,1370.495,1370.502,0.5434959421647542,61.81041344039221,-0.4598813951015472,-51.092872619628906,-0.286948561668396,-28.695810317993164,-0.2896496877074241,-34.78570938110352,-0.1321175396442413,-10.070550918579102,L,False,True,4,R,100,,0.229,LeftResponse,incorrect,True,18.0
182,194,1373.8196666666665,10734,1373.758,1373.763,1373.769,0.3025537234137177,32.142020060440416,-0.2998102251440286,-31.64406394958496,-0.2895883321762085,-27.365402221679688,-0.0406519919633865,-5.635838031768799,-0.0127033293247222,-0.6929097771644592,L,False,True,4,R,50,,0.264,RightResponse,correct,True,16.0
183,195,1377.0046666666665,13851,1376.937,1376.944,1376.952,0.4139653871717599,39.93974685777889,0.2159626930952072,24.89912223815918,0.2209452390670776,16.553903579711914,-0.3531677462160587,-31.228466033935547,-0.3531431257724762,-31.457124710083008,L,False,True,4,R,50,,0.264,LeftResponse,incorrect,True,15.0
184,196,1381.7296666666666,10746,1381.517,1381.524,1381.53,0.5030926794296997,52.56411199761399,-0.5005198307335377,-52.50041580200195,-0.2692160606384277,-29.508039474487305,-0.0508147925138473,-2.586930751800537,-0.2896426022052765,-26.400510787963867,L,False,True,4,R,200,,0.344,RightResponse,correct,True,15.0
185,197,1385.0566666666666,10753,1384.992,1384.999,1385.004,0.3129644837029413,30.41979925963768,-0.3099695071578026,-29.98053741455078,-0.3199645280838012,-32.04201126098633,-0.0431934334337711,-5.150879859924316,-0.1295734345912933,-10.301177024841309,L,False,True,4,L,50,,0.273,LeftResponse,correct,True,18.0
186,198,1388.3416666666665,3877,1388.23,1388.236,1388.242,0.4359055453230918,45.43769286164759,0.4192292392253876,44.90262985229492,0.3504921197891235,29.231746673583984,-0.1194172911345958,-6.952536582946777,-0.2998117562383413,-29.9812068939209,L,False,True,4,L,100,,0.315,LeftResponse,correct,True,21.0
187,199,1392.4756666666665,10765,1392.063,1392.071,1392.078,0.6099682459510927,64.92372684037522,-0.6097777187824249,-64.76569366455078,-0.3605622053146362,-33.44640350341797,0.0152444988489151,4.52716588973999,-0.0711389482021331,-6.259295463562012,L,False,True,4,L,400,,0.306,LeftResponse,correct,True,10.0
188,201,1463.9856666666665,10938,1463.875,1463.881,1463.885,0.2834758900334109,30.62402652875636,-0.2744045630097389,-29.219030380249023,-0.3557101488113403,-35.50175476074219,-0.071138709783554,-9.169474601745604,-0.1397436410188675,-8.70799446105957,L,False,True,5,R,100,,0.328,RightResponse,correct,True,20.0
189,202,1467.8326666666665,10949,1467.622,1467.628,1467.635,0.4739801561904346,52.46391252608792,-0.4700412601232528,-50.838497161865234,-0.4598793089389801,-46.49591064453125,0.0609787032008171,12.957983016967772,-0.0330300331115722,-1.570661187171936,L,False,True,5,L,200,,0.367,RightResponse,incorrect,True,14.0
190,203,1471.9046666666666,10958,1471.495,1471.502,1471.508,0.5182014491423212,50.64737831891425,-0.459881380200386,-43.67841339111328,-0.3023518025875091,-30.9050407409668,-0.238834373652935,-25.638898849487305,-0.2312108250334859,-20.996097564697266,L,False,True,5,R,400,,0.244,LeftResponse,incorrect,True,9.0
191,204,1475.0226666666665,10965,1475.012,1475.02,1475.025,0.4613174996318135,44.97113732311117,-0.4115900099277496,-38.64117813110352,-0.2769460827112198,-28.410669326782227,-0.2083446644246578,-23.00570678710937,-0.1930923759937286,-20.094623565673828,L,False,True,5,L,0,,0.281,LeftResponse,correct,True,27.0
192,205,1478.2956666666666,4127,1478.082,1478.088,1478.093,0.3370433764169999,32.26120501202934,0.218505285680294,20.926576614379883,0.1880163997411728,22.24322891235352,-0.2566197142004967,-24.55328369140625,-0.3633295726031065,-28.826181411743164,L,False,True,5,R,200,,0.271,LeftResponse,incorrect,True,17.0
193,206,1481.8636666666666,10975,1481.651,1481.657,1481.662,0.3334229850467193,35.222675244790494,-0.2896492257714271,-32.49893569946289,-0.116873487830162,-15.47532844543457,-0.1651490628719329,-13.581459045410156,-0.2616980224847793,-24.807090759277344,L,False,True,5,L,200,,0.242,LeftResponse,correct,True,20.0
194,207,1484.8026666666665,4142,1484.789,1484.796,1484.803,0.3557879728446,32.58077795564662,0.3557063126936555,31.87501716613769,0.337924525141716,28.08727264404297,0.0076223835349082,-6.744655132293701,-0.0685961544513702,-9.284667015075684,L,False,True,5,L,0,,0.209,LeftResponse,correct,True,26.0
195,208,1488.0376666666666,10990,1487.927,1487.934,1487.939,0.4285460741045296,45.56531910710801,-0.3353782892227173,-35.824642181396484,-0.2743993997573852,-27.948184967041016,-0.2667829468846321,-28.15658569335937,-0.2235786914825439,-19.655614852905277,L,False,True,5,L,100,,0.383,LeftResponse,correct,True,19.0
196,209,1491.5386666666666,10993,1491.125,1491.131,1491.135,0.2880517009224232,30.926040908296464,-0.2489974051713943,-26.585920333862305,-0.2515382915735245,-26.470434188842773,-0.1448242887854576,-15.7990140914917,-0.0914672017097473,-12.426590919494627,L,False,True,5,L,400,,0.368,LeftResponse,correct,True,12.0
197,210,1494.6076666666665,14078,1494.197,1494.203,1494.212,0.489546909617018,47.95344893864026,-0.0813054256141185,-14.852090835571287,-0.078761488199234,-10.370698928833008,-0.4827479720115661,-45.595489501953125,-0.4700430035591125,-37.85755157470703,L,False,True,5,R,400,,0.201,LeftResponse,incorrect,True,11.0
198,211,1499.0786666666665,11006,1498.67,1498.676,1498.681,0.3066783436961113,32.7036733551416,-0.3048944398760795,-32.52207946777344,-0.3684085942804813,-41.76052474975586,0.033030092716217,3.4415981769561768,0.0,-1.0624995231628418,L,False,True,5,L,400,,0.286,LeftResponse,correct,True,14.0
199,212,1502.6506666666667,14093,1502.542,1502.545,1502.553,0.2987874215562927,27.695546962217264,-0.1651506014168262,-15.59111499786377,-0.1016315408051014,-12.65774631500244,-0.2489963897969573,-22.890182495117188,-0.1092523634433746,-10.324708938598633,L,False,True,5,R,100,,0.242,RightResponse,correct,True,18.0
200,213,1506.2606666666666,14102,1506.2,1506.206,1506.214,0.4620628304190567,45.8646046813516,0.182930439710617,21.411115646362305,0.259152427315712,25.222332000732425,-0.424309454858303,-40.56015396118164,-0.4065100699663162,-35.66227722167969,L,False,True,5,R,50,,0.288,LeftResponse,incorrect,True,17.0
201,214,1510.0786666666665,11030,1509.666,1509.673,1509.679,0.46418498656838,46.81369053921712,-0.4471776336431503,-45.2952880859375,-0.3963591456413269,-37.53399658203125,-0.1244984567165374,-11.826178550720217,-0.2083396166563034,-18.154695510864254,L,False,True,5,R,400,,0.39,RightResponse,correct,True,13.0
202,215,1514.1546666666666,11036,1514.092,1514.098,1514.102,0.2825185916750629,31.36172561411117,-0.2769337892532348,-30.02628326416016,-0.1422815173864364,-17.300193786621094,-0.0558966100215911,-9.054288864135742,-0.1625958383083343,-13.141551971435549,L,False,True,5,L,50,,0.368,LeftResponse,correct,True,20.0
203,217,1521.3116666666665,14125,1521.305,1521.307,1521.313,0.1676913537085056,20.920775434230265,0.0,9.031209945678713,-0.0127038210630416,4.919836521148682,-0.1676913537085056,-18.87103843688965,-0.0609784722328186,-6.120950222015381,L,False,True,5,R,0,,0.386,LeftResponse,incorrect,True,24.0
204,218,1524.7216666666666,14131,1524.51,1524.514,1524.523,0.2821181981994048,28.05646471626172,-0.1956391558051109,-24.368303298950195,-0.1981817632913589,-25.40791893005371,-0.203263372182846,-13.905071258544922,-0.1168651580810546,-8.176031112670898,L,False,True,5,R,200,,0.36,RightResponse,correct,True,19.0
205,219,1528.5636666666664,11065,1528.452,1528.456,1528.462,0.2701597290212119,30.947782799876304,-0.2312099114060402,-24.599254608154297,-0.1244884431362152,-12.933807373046877,-0.1397435367107391,-18.77876281738281,-0.1448175311088562,-16.21409034729004,L,False,True,5,R,100,,0.351,LeftResponse,incorrect,True,17.0
206,220,1532.2566666666667,11069,1532.196,1532.202,1532.206,0.3612281970968338,37.50885782010013,-0.2489970214664936,-25.939144134521484,-0.1930865347385406,-14.643350601196287,-0.2616988606750965,-27.093822479248047,-0.1626102775335312,-15.106128692626951,L,False,True,5,L,50,,0.26,LeftResponse,correct,True,19.0
207,221,1535.4126666666666,11074,1535.351,1535.355,1535.362,0.3953286532601682,45.67192546054888,-0.3734897747635841,-44.62474822998047,-0.2667829468846321,-28.15658187866211,-0.1295767426490783,-9.72402286529541,-0.0025406777858734,1.3627431392669678,L,False,True,5,L,50,,0.237,LeftResponse,correct,True,18.0
208,222,1538.8266666666666,11079,1538.766,1538.772,1538.779,0.4128326546113425,38.0422646788332,-0.3607548475265503,-34.15852355957031,-0.2489962896797806,-23.883316040039062,0.200715571641922,16.74542236328125,0.0381089746952056,-0.5081213116645813,L,False,True,5,R,50,,0.326,RightResponse,correct,True,17.0
209,223,1541.9946666666665,4266,1541.883,1541.887,1541.892,0.1943217906607898,21.899748787245237,0.1753019392490387,19.12384796142578,0.3226694613695144,32.10545349121094,-0.0838462188839912,-10.671337127685549,-0.2337428629398346,-23.559221267700195,L,False,True,5,R,100,,0.343,LeftResponse,incorrect,True,20.0
210,224,1545.4256666666665,14167,1545.414,1545.419,1545.427,0.4296895486351417,41.78092270712549,-0.2032620459794998,-25.823427200317383,-0.0914685800671577,-14.82896327972412,-0.3785731750540435,-32.84503173828125,-0.2871050909161567,-21.96611785888672,L,False,True,5,R,0,,0.324,RightResponse,correct,True,27.0
211,225,1549.2396666666666,4286,1549.028,1549.034,1549.041,0.3959591343444852,34.876138067631935,0.3912362456321716,34.68952941894531,0.3277587355114519,29.634620666503903,0.0609740614891052,3.602992534637451,0.0355693697929382,3.9726853370666495,L,False,True,5,R,200,,0.305,RightResponse,correct,True,18.0
212,226,1553.6276666666665,11114,1553.415,1553.421,1553.427,0.3622855848779146,36.97668591708863,-0.3607767671346664,-36.88608169555664,-0.2693225918337703,-29.35755920410156,-0.0330298244953155,-2.586943864822388,-0.0254052281379699,-1.408846139907837,L,False,True,5,L,200,,0.351,LeftResponse,correct,True,17.0
213,227,1557.2626666666665,11121,1557.148,1557.158,1557.164,0.5585823431263033,47.73825865349175,-0.4776264131069183,-41.68917465209961,-0.4497174769639969,-34.1851692199707,-0.2896329462528229,-23.258419036865234,-0.2007045745849609,-26.26040267944336,L,False,True,5,L,100,,0.224,LeftResponse,correct,True,23.0
214,228,1560.6306666666665,4322,1560.568,1560.574,1560.58,0.4080205048692254,47.77548955287007,0.4064671993255615,47.43642425537109,0.3658617883920669,36.44794464111328,0.0355689227581024,5.681818008422852,0.0838395059108734,7.852802753448486,L,False,True,5,L,50,,0.302,LeftResponse,correct,True,16.0
215,229,1564.4896666666666,14210,1564.472,1564.474,1564.476,0.1012398974665267,14.731381910759849,-0.0304827690124511,-4.595523357391357,-0.0076222121715545,-2.6331381797790527,-0.0965417921543121,-13.996241569519045,-0.1727655529975891,-25.22183609008789,L,False,True,5,L,0,,0.222,LeftResponse,correct,True,26.0
216,230,1567.9576666666665,7763,1567.537,1567.549,1567.563,0.7206277457094726,36.790521810966496,0.1549619436264038,17.1588077545166,0.1244946718215942,16.699182510375977,0.7037692405283451,32.544090270996094,0.5054562091827393,28.12501716613769,L,False,True,5,R,400,,0.265,RightResponse,correct,True,12.0
217,231,1571.5216666666665,11156,1571.409,1571.416,1571.424,0.4708528504563511,42.77555415095935,-0.4700226783752441,-42.77539825439453,-0.4116069078445434,-36.40256881713867,-0.0279479622840881,0.1154863610863685,0.0076218843460083,-0.3002564311027527,L,False,True,5,L,100,,0.3,LeftResponse,correct,True,22.0
218,232,1575.1606666666667,11162,1575.095,1575.106,1575.112,0.4856043384388331,44.92430182084368,-0.4242533445358276,-36.58308410644531,-0.409058291465044,-21.80449676513672,-0.2362639904022216,-26.07433319091797,-0.2032556533813476,-13.650472640991213,L,False,True,5,R,50,,0.212,RightResponse,correct,True,15.0
219,233,1578.6116666666665,11168,1578.6,1578.607,1578.612,0.3045404762916975,32.19136012331241,-0.2870839834213257,-27.507549285888672,-0.2871076106093824,-29.057334899902344,-0.1016252338886261,-16.72179412841797,-0.226112425327301,-18.638525009155277,L,False,True,5,R,0,,0.331,LeftResponse,incorrect,True,25.0
220,234,1581.6226666666666,7797,1581.559,1581.565,1581.577,0.3684621877404844,30.790964717793475,-0.1346204876899719,-18.334556579589844,-0.1854746639728546,-16.953760147094727,0.34298937022686,24.73716926574707,0.1371876001358032,11.801607131958008,L,False,True,5,R,50,,0.217,LeftResponse,incorrect,True,14.0
221,235,1585.7236666666665,4382,1585.31,1585.316,1585.322,0.3467552827113354,35.929600164558536,0.3226467072963714,35.35953140258789,0.1956209540367126,19.74693489074707,-0.1270367205142974,-6.374927997589111,0.0127016901969909,3.1870267391204834,L,False,True,5,L,400,,0.278,RightResponse,incorrect,True,11.0
222,236,1589.6366666666665,11198,1589.225,1589.232,1589.238,0.4573652917395781,45.423448404552886,-0.4293818473815918,-43.677494049072266,-0.4065222069621086,-42.50008010864258,-0.157525360584259,-12.472617149353027,-0.147352248430252,-12.84132480621338,L,False,True,5,L,400,,0.271,LeftResponse,correct,True,14.0
223,237,1593.1296666666665,4406,1592.917,1592.923,1592.928,0.346062166289093,38.47870579233997,0.2921618521213531,33.188568115234375,0.2540778219699859,25.80043029785156,-0.1854736506938934,-19.471254348754883,-0.2057963013648986,-17.022666931152344,L,False,True,5,R,200,,0.254,LeftResponse,incorrect,True,16.0
224,238,1596.3816666666667,14282,1596.168,1596.172,1596.181,0.3106050157697936,27.852623084117017,0.0813018679618835,14.297037124633787,0.1168740391731262,15.706355094909668,-0.2997757196426391,-23.903207778930664,-0.2921862006187439,-18.847885131835938,L,False,True,5,L,200,,0.327,RightResponse,incorrect,True,19.0
225,239,1599.9116666666666,11222,1599.799,1599.806,1599.811,0.5000619925583561,57.13872251949031,-0.4420698136091232,-49.88920974731445,-0.3760284557938576,-39.38153076171875,-0.2337440401315689,-27.85498809814453,-0.2210369706153869,-23.558868408203125,L,False,True,5,L,100,,0.399,LeftResponse,correct,True,21.0
