,trialIndex,targetOnsetTime,Unnamed: 0,startTime,peakVelocityTime,stopTime,amplitude,peakVelocity,saccade_vec_left_x,peak_velocity_vec_left_x,saccade_vec_right_x,peak_velocity_vec_right_x,saccade_vec_left_y,peak_velocity_vec_left_y,saccade_vec_right_y,peak_velocity_vec_right_y,whichEye,otherEyeMissingData,isBinocular,blockId,arrowDirection,latency,blankDuration,fixationDurationInSec,response,result,isSaccade,blankDurationInFrameCount
0,0,156.53466666666668,5944,156.422,156.428,156.434,0.5852902274637968,61.692998005398096,-0.5157058537006378,-57.92205810546875,-0.4699931740760803,-52.749786376953125,-0.2767889499664306,-21.238201141357425,-0.3556903898715973,-36.12331771850586,L,False,True,0,L,100,,0.305,LeftResponse,correct,True,4.0
1,2,165.31466666666668,558,165.104,165.11,165.115,0.3942437205980991,44.21459626590689,0.3531450033187866,38.03987503051758,0.7241159379482269,74.28291320800781,-0.1752618551254272,-22.536602020263672,-0.1625853180885315,-14.595895767211914,L,False,True,0,L,200,,0.343,RightResponse,incorrect,True,3.0
2,4,172.00566666666668,5966,171.894,171.902,171.908,0.6593386419489542,63.36556962098168,-0.6526036262512207,-63.36496353149414,-0.3150067329406738,-33.3244514465332,-0.0939997434616088,0.2771462500095367,-0.1270298957824707,-3.7184462547302246,L,False,True,0,R,100,,0.212,LeftResponse,incorrect,True,6.0
3,5,177.51366666666667,585,177.101,177.104,177.108,0.2498219958022819,29.96148462242242,0.2362220287322998,28.4713191986084,0.3175670802593231,37.20711517333984,-0.0813030302524566,-9.331374168395996,-0.0711421370506286,-8.661785125732422,L,False,True,0,R,400,,0.245,RightResponse,correct,True,4.0
4,7,185.98966666666666,606,185.929,185.934,185.94,0.602677438637088,70.54829179001723,0.6021417453885078,70.42295837402344,0.9984678626060486,100.77245330810548,-0.0254049897193908,-4.203380584716797,0.0050811171531677,-2.2172534465789795,L,False,True,0,R,50,,0.391,RightResponse,correct,True,4.0
5,8,190.53266666666667,5989,190.458,190.464,190.47,0.3783253854203567,42.8569005600944,-0.368334412574768,-40.967063903808594,-0.124472975730896,-17.320154190063477,-0.0863704681396484,-12.586246490478516,-0.1371989250183105,-9.724064826965332,L,False,True,0,L,50,,0.399,RightResponse,incorrect,True,3.0
6,11,205.34166666666667,6001,205.325,205.332,205.338,0.4394561469199938,42.15995072240566,-0.4191292524337768,-40.68886947631836,-0.2514909505844116,-28.173986434936523,-0.1321074366569519,-11.039807319641112,-0.1270372420549392,-15.221477508544922,L,False,True,0,R,0,,0.365,LeftResponse,incorrect,True,7.0
7,12,208.84266666666667,8251,208.431,208.434,208.439,0.29469167113863,33.14348752079891,-0.0050805807113647,0.6928088665008545,0.226120263338089,29.033048629760746,-0.2946478724479675,-33.13624572753906,-0.2845139503479004,-28.705720901489254,L,False,True,0,L,400,,0.309,RightResponse,incorrect,True,3.0
8,13,212.39866666666668,664,212.288,212.292,212.296,0.2687834076577695,29.709959767374087,0.2159307599067688,23.302005767822266,0.4344099760055542,46.74340438842773,-0.1600575745105743,-18.43090438842773,-0.0813035070896148,-8.153460502624512,L,False,True,0,R,100,,0.392,RightResponse,correct,True,12.0
9,14,216.02866666666668,6017,215.957,215.963,215.969,0.3646875209378576,36.539024307568326,-0.3454540371894836,-35.76933288574219,-0.0050809383392333,-5.912307262420654,-0.116869568824768,-7.460236072540283,-0.0863810777664184,-16.62938117980957,L,False,True,0,L,50,,0.332,RightResponse,incorrect,True,6.0
10,15,220.69566666666668,8265,220.488,220.49,220.493,0.1656269691805654,21.97048811195048,0.0584293603897094,6.766729831695557,0.2210109829902649,30.969024658203125,-0.1549783945083618,-20.90248107910156,-0.0813013315200805,-12.102818489074709,L,False,True,0,R,200,,0.336,RightResponse,correct,True,9.0
11,16,224.50166666666667,684,224.491,224.499,224.506,0.8342853714321166,86.46487263885801,0.8307966962456703,86.45262908935547,1.1128027737140656,105.07072448730467,-0.0762163400650024,-1.4550340175628662,-0.0787590742111206,-6.721087455749512,L,False,True,0,L,0,,0.311,RightResponse,incorrect,True,10.0
12,17,228.77266666666668,6028,228.71,228.718,228.726,0.8247677760415512,79.79191057831984,-0.817837119102478,-79.77458190917969,-0.368369311094284,-45.7514533996582,-0.1066973805427551,-1.6628514528274536,0.0228652358055114,3.325849294662476,L,False,True,0,R,50,,0.292,LeftResponse,incorrect,True,9.0
13,18,234.52666666666667,8280,234.116,234.12,234.124,0.2263923145137394,24.74590879840943,0.0355607867240905,4.918437004089356,0.259103775024414,29.582141876220703,-0.2235819995403289,-24.252195358276367,-0.2134220898151397,-21.55002212524414,L,False,True,0,R,400,,0.311,LeftResponse,incorrect,True,6.0
14,19,238.37766666666667,715,238.367,238.373,238.378,0.3164778300367389,31.472803119432736,0.3150060772895813,29.999956130981445,0.2718557268381119,17.484859466552734,-0.0304858684539794,-9.515249252319336,0.0533543825149536,5.173772811889648,L,False,True,0,L,0,,0.375,RightResponse,incorrect,True,13.0
15,20,242.59966666666668,8288,242.593,242.597,242.6,0.2491971488379582,28.36221940569014,0.0863804221153259,12.079394340515137,0.3760087788105011,41.50437545776367,-0.2337469607591629,-25.661327362060547,-0.1092538349330425,-12.888712882995604,L,False,True,0,R,0,,0.318,RightResponse,correct,True,16.0
16,21,246.19266666666667,6054,245.981,245.986,245.992,0.4659374074211905,53.94597472223081,-0.459663987159729,-53.0543098449707,-0.4343914985656738,-51.983177185058594,0.0762016177177429,9.767722129821776,-0.0050812363624572,-4.157321929931641,L,False,True,0,L,200,,0.365,LeftResponse,correct,True,8.0
17,22,249.67766666666668,6062,249.613,249.618,249.624,0.4473206238791771,51.145087571463286,-0.4444258213043213,-50.99946594238281,-0.2819667458534241,-32.53800582885742,0.050807774066925,3.8567416667938232,0.0939984321594238,1.893808364868164,L,False,True,0,R,50,,0.394,LeftResponse,incorrect,True,12.0
18,23,253.04966666666667,6067,252.832,252.839,252.845,0.5045021310951148,48.24641478949133,-0.4671436548233032,-45.21379089355469,-0.1802805662155151,-22.50636100769043,0.1905235052108764,16.835369110107422,0.1371859908103943,11.43197250366211,L,False,True,0,L,200,,0.244,LeftResponse,correct,True,7.0
19,24,258.24966666666666,6072,258.185,258.191,258.196,0.2981821985874806,33.76116118355814,-0.2970978021621704,-33.749141693115234,-0.2183467149734497,-26.934898376464844,-0.025407075881958,-0.9007993340492249,-0.1117947800084948,-10.879213333129885,L,False,True,0,L,50,,0.371,LeftResponse,correct,True,15.0
20,25,261.41766666666666,6077,261.4,261.406,261.414,0.4375946143815198,37.53800299672224,-0.4368565082550049,-37.521629333496094,-0.1879386901855468,-18.03197860717773,-0.025405466556549,1.1086032390594482,-0.091463416814804,-16.16766929626465,L,False,True,0,L,0,,0.372,LeftResponse,correct,True,15.0
21,26,267.0846666666667,775,266.672,266.676,266.681,0.2795279319607343,29.81252253980662,0.2539236545562744,29.27054786682129,0.2234995365142822,26.067380905151367,-0.1168701946735382,-5.658756732940674,-0.0660577416419982,-7.645147323608398,L,False,True,0,L,400,,0.393,RightResponse,incorrect,True,9.0
22,27,270.58566666666667,6089,270.571,270.577,270.583,0.607933009101967,62.40124044295337,-0.5993813872337341,-62.06290817260742,-0.4241408705711365,-44.65373992919922,0.1016095280647277,6.4892401695251465,-0.0533531606197357,-8.938419342041016,L,False,True,0,R,0,,0.345,LeftResponse,incorrect,True,14.0
23,28,274.3126666666667,6094,274.098,274.104,274.11,0.6503626522989344,75.77081273043407,-0.6501194834709167,-75.72425079345703,-0.2920767664909363,-37.77358627319336,-0.0177830457687377,2.655918598175049,-0.0304873287677764,-2.8870415687561035,L,False,True,0,R,200,,0.302,LeftResponse,incorrect,True,6.0
24,29,279.11266666666666,799,279.054,279.06,279.064,0.2264270399842722,21.67222945174387,0.2260704040527343,21.660398483276367,0.1752650141716003,14.15536880493164,-0.0127034187316894,-0.716007649898529,0.0254071056842803,-1.4782391786575315,L,False,True,0,L,50,,0.332,LeftResponse,correct,True,14.0
25,30,282.4556666666667,6104,282.043,282.048,282.053,0.4530473870996961,50.82393298264384,-0.4317761063575744,-47.7725944519043,-0.1498652696609497,-19.4432430267334,-0.1371908485889434,-17.345067977905273,-0.1270364671945572,-11.502528190612791,L,False,True,0,L,400,,0.206,LeftResponse,correct,True,12.0
26,31,286.8776666666667,6111,286.464,286.471,286.48,0.6661220894460187,60.918581417556,-0.6579282283782959,-60.64434814453125,-0.3251250982284546,-37.31596374511719,-0.1041589379310607,-5.773785591125488,-0.002540647983551,-5.2891764640808105,L,False,True,0,R,400,,0.374,LeftResponse,incorrect,True,11.0
27,32,289.83366666666666,828,289.822,289.826,289.831,0.2750582697507001,31.01598168654626,0.2743064761161804,30.917390823364254,0.2514557838439941,27.13145446777344,-0.0203226208686828,-2.4710452556610107,0.0635174512863159,5.243084907531738,L,False,True,0,L,0,,0.306,LeftResponse,correct,True,17.0
28,33,294.3926666666667,836,294.331,294.338,294.344,0.6150408907308956,69.10150415722404,0.599544882774353,66.90708923339844,0.927219182252884,92.28433990478516,-0.1371904909610748,-17.27597427368164,0.0,5.197043895721436,L,False,True,0,R,50,,0.302,LeftResponse,incorrect,True,13.0
29,34,299.24266666666665,849,299.03,299.035,299.04,0.2856203966493891,26.43992233276411,0.2844880819320678,26.439922332763672,0.2133532762527465,21.61298370361328,-0.0254075229167938,-4.818699835595908e-06,-0.0203261375427246,-1.085601568222046,L,False,True,0,R,200,,0.337,LeftResponse,incorrect,True,9.0
30,35,302.1236666666667,6134,302.008,302.014,302.021,0.6682875023472209,70.37426299539484,-0.668113648891449,-70.34557342529297,-0.3632653355598449,-37.41183471679688,0.0152426362037658,2.009276390075684,-0.1778334975242614,-16.37455940246582,L,False,True,0,R,100,,0.205,LeftResponse,incorrect,True,11.0
31,36,305.45866666666666,6141,305.344,305.35,305.356,0.5169963264279777,53.42815294727935,-0.5030176937580109,-52.03399658203125,-0.1524284482002258,-22.51765251159668,-0.1194085478782653,-12.125622749328612,-0.1219514310359954,-15.036005973815918,L,False,True,0,L,100,,0.22,LeftResponse,correct,True,14.0
32,37,310.97066666666666,6148,310.856,310.863,310.87,0.5545555254217834,51.72657823889239,-0.5511929988861084,-50.68575286865234,-0.3149048089981079,-39.06307601928711,0.0609762966632843,10.324405670166016,-0.0736830402165651,-12.449875831604004,L,False,True,0,R,100,,0.271,RightResponse,correct,True,13.0
33,39,321.15866666666665,6162,320.743,320.751,320.756,0.5480464071363055,49.85859952920784,-0.546134889125824,-49.32487487792969,-0.4063280820846557,-52.42943954467773,-0.0457334369421005,-7.275758743286133,-0.0279480218887329,-0.3695588707923889,L,False,True,0,L,400,,0.271,RightResponse,incorrect,True,17.0
34,40,448.2416666666667,6352,448.225,448.232,448.239,0.5043551469696584,47.93591505763783,-0.4700437933206558,-46.79658126831055,-0.200686514377594,-29.259754180908203,-0.1828467845916748,-10.389029502868652,0.0101615190505981,-7.8520731925964355,L,False,True,1,L,0,,0.287,LeftResponse,correct,True,16.0
35,41,451.94666666666666,1255,451.841,451.846,451.851,0.3689289443696092,44.16260851163974,0.3531629145145416,42.03781509399414,0.5816617012023926,56.22599029541016,-0.1066982746124267,-13.533591270446776,-0.2083431631326675,-22.797626495361328,L,False,True,1,L,100,,0.348,RightResponse,incorrect,True,12.0
36,47,475.8826666666667,1295,475.474,475.476,475.479,0.1303702034122227,17.684857770821854,0.1092521399259567,15.891242027282717,0.1904648542404174,27.565746307373047,-0.0711362063884735,-7.760323524475098,0.0279486328363418,5.28944730758667,L,False,True,1,L,400,,0.275,RightResponse,incorrect,True,19.0
37,48,479.28766666666667,6386,479.076,479.083,479.091,0.689003684271826,62.21002053097893,-0.604687328916043,-57.32748794555664,-0.3225049972534179,-35.13765335083008,-0.3302715718746185,-24.15876197814941,-0.2108848495408892,-25.592416763305664,L,False,True,1,R,200,,0.219,RightResponse,correct,True,10.0
38,53,498.16066666666666,6406,498.047,498.054,498.061,0.5398464880627308,53.53935443286217,-0.5360970050096512,-53.4943733215332,-0.248952567577362,-34.271236419677734,-0.0635156035423278,2.1941959857940674,0.0203263387084007,-3.395425319671631,L,False,True,1,R,100,,0.246,LeftResponse,incorrect,True,14.0
39,55,505.25466666666665,1351,505.045,505.049,505.057,0.4006629935251142,35.988876155079055,0.3861948868725449,34.99329376220703,0.327634334564209,35.48782730102539,-0.1066974401473999,-8.406461715698242,-0.0787596404552459,-1.8015542030334477,L,False,True,1,R,200,,0.282,RightResponse,correct,True,9.0
40,57,512.6156666666667,6422,512.542,512.547,512.552,0.3087321593297892,33.60395105264621,-0.2998111525084823,-32.82215118408203,-0.1041584610939025,-8.799220085144043,-0.0736805200576782,-7.206380367279053,-0.1651498451828956,-13.604641914367676,L,False,True,1,R,50,,0.332,LeftResponse,incorrect,True,18.0
41,58,515.5056666666667,1376,515.393,515.398,515.401,0.2169194342877961,24.05225788087296,0.2108857482671737,21.73532485961914,0.1904941797256469,19.37251281738281,-0.050805926322937,-10.299842834472656,0.0076212882995605,-3.164015293121338,L,False,True,1,L,100,,0.266,LeftResponse,correct,True,17.0
42,60,523.4406666666666,1393,523.032,523.035,523.042,0.267368527059484,24.658326286305098,0.2667763531208038,24.599018096923828,0.0533438324928283,19.351022720336918,0.0177850127220153,1.7091997861862185,-0.0203263275325298,3.0951404571533203,L,False,True,1,R,400,,0.25,RightResponse,correct,True,21.0
43,64,537.5256666666667,8637,537.11,537.116,537.121,0.3781922994987061,38.60198590167178,0.0736800730228424,9.93178653717041,0.3759180307388305,40.80093002319336,-0.3709456324577331,-37.30245208740234,-0.175313975661993,-15.937636375427246,L,False,True,1,R,400,,0.203,RightResponse,correct,True,22.0
44,69,556.0696666666666,6476,556.008,556.014,556.021,0.5017949739583868,54.62768353076448,-0.500533252954483,-53.91073989868164,-0.1879768967628479,-18.86688804626465,-0.0355620384216308,-8.821333885192871,-0.0177850425243377,-1.7092112302780151,L,False,True,1,R,50,,0.308,LeftResponse,incorrect,True,23.0
45,73,570.7996666666667,1479,570.588,570.595,570.602,0.5742884031827565,53.277795919064566,0.5665447115898132,52.40447998046875,0.7796682119369507,72.17418670654297,-0.0939907431602478,-9.606977462768556,-0.1194166168570518,-9.747384071350098,L,False,True,1,R,200,,0.337,RightResponse,correct,True,14.0
46,74,574.2426666666667,6498,574.22,574.224,574.229,0.3023608777925514,36.90148095202226,-0.2743856310844421,-34.27518844604492,-0.0177743434906005,-6.44046688079834,-0.1270221471786499,-13.67226219177246,-0.1753119528293609,-19.194255828857425,L,False,True,1,L,0,,0.244,RightResponse,incorrect,True,21.0
47,77,583.8676666666667,6510,583.757,583.763,583.769,0.4977218020707161,47.53485164778217,-0.4420894107315689,-42.91551971435547,-0.3885766863822937,-43.614376068115234,-0.2286568284034729,-20.44065284729004,-0.2998126670718193,-31.82908058166504,L,False,True,1,L,100,,0.271,LeftResponse,correct,True,17.0
48,80,935.0786666666667,1876,935.02,935.023,935.028,0.2239407813409816,25.918979117245957,0.2032556533813476,24.73714256286621,0.6859669983386993,75.84994506835938,-0.0940032601356506,-7.737393379211426,0.0177854150533676,2.402186632156372,L,False,True,2,R,50,,0.241,RightResponse,correct,True,24.0
49,81,939.8206666666666,1880,939.812,939.819,939.827,0.7488824801141426,70.01691150772953,0.7469797432422638,70.00953674316406,1.094953051768243,105.59104919433594,-0.0533500909805297,-1.016199827194214,-0.0584381334483623,2.7717502117156982,L,False,True,2,R,0,,0.388,RightResponse,correct,True,24.0
50,82,944.9996666666667,1884,944.791,944.796,944.802,0.2968664544914196,30.20026205864578,0.2947276644408703,30.18881225585937,0.1930999793112278,15.98386573791504,0.0355709940195083,0.8315305113792419,0.0355666875839233,10.138853073120115,L,False,True,2,R,200,,0.293,RightResponse,correct,True,16.0
51,84,953.4266666666666,6727,953.308,953.314,953.322,0.4246726143250821,39.82891608806946,-0.391248881816864,-30.32508659362793,-0.236253559589386,-13.925484657287598,0.165139764547348,25.82114791870117,0.1803886890411377,18.33925437927246,L,False,True,2,R,100,,0.205,RightResponse,correct,True,16.0
52,85,958.4556666666667,8908,958.397,958.399,958.401,0.1372961505458522,19.7576284984119,-0.0050814449787139,-1.7554033994674685,0.1778450608253479,26.538190841674805,-0.1372020840644836,-19.679492950439453,-0.0939868092536926,-17.965993881225586,L,False,True,2,R,50,,0.313,RightResponse,correct,True,23.0
53,86,963.3686666666666,6748,963.156,963.163,963.17,0.7592174242222514,85.56733667064964,-0.7545733409933746,-85.52751922607422,-0.4395482921972871,-54.76465225219727,-0.0838461108505725,-2.6100881099700928,0.1270180940628051,-2.447975873947144,L,False,True,2,R,200,,0.238,LeftResponse,incorrect,True,15.0
54,87,966.8746666666667,1928,966.763,966.77,966.778,0.6772536153210743,66.03469208121915,0.6732338070869446,64.78314208984375,1.1301859617233276,109.09236907958984,-0.0736797153949737,-12.795509338378906,-0.0838443636894226,-5.10448169708252,L,False,True,2,R,100,,0.365,RightResponse,correct,True,15.0
55,88,973.8976666666666,6760,973.477,973.482,973.486,0.2455117465069026,26.185555258023747,-0.2439157366752624,-25.89295959472656,-0.127033919095993,-16.67613983154297,0.027948722243309,3.903581380844116,-0.0635111927986145,-5.242599010467529,L,False,True,2,R,400,,0.309,LeftResponse,incorrect,True,23.0
56,89,977.6156666666667,1945,977.207,977.211,977.214,0.2103936824753783,24.44044673098706,0.1549874953925609,18.409088134765625,0.3251749277114868,38.6143913269043,-0.1422827392816543,-16.07609748840332,0.0381112396717071,3.9497103691101074,L,False,True,2,L,400,,0.383,LeftResponse,correct,True,26.0
57,90,980.8216666666667,1949,980.812,980.814,980.818,0.1779422245914845,22.01212391870685,0.1295799799263477,16.076221466064453,0.375950813293457,45.72442626953125,-0.1219527125358581,-15.036246299743652,-0.0533556342124938,-9.308320045471191,L,False,True,2,L,0,,0.26,RightResponse,incorrect,True,23.0
58,91,987.0876666666667,6778,987.029,987.029,987.033,0.1150383291406732,15.648297067796635,-0.0990907698869705,-11.91861343383789,0.1600532531738281,19.700733184814453,-0.0584366023540496,-10.139815330505373,-0.0558935403823852,-10.000720024108888,L,False,True,2,R,50,,0.334,RightResponse,correct,True,22.0
59,92,991.7136666666667,6784,991.59,991.594,991.599,0.2617014199495315,33.248557651088134,-0.2617014199495315,-33.2381591796875,-0.1626047790050506,-16.052595138549805,0.0,0.8314807415008545,-0.099090501666069,-9.493278503417969,L,False,True,2,L,100,,0.3,RightResponse,incorrect,True,14.0
60,95,1005.7976666666667,1979,1005.732,1005.736,1005.742,0.2548907712747002,27.73035454471388,0.2540790140628814,27.532936096191406,0.2108687460422516,25.798511505126957,-0.0203263349831104,-3.303027868270874,-0.0177832245826721,4.180179595947266,L,False,True,2,L,50,,0.323,LeftResponse,correct,True,20.0
61,96,1009.9616666666667,6800,1009.947,1009.953,1009.96,0.5748943720535116,58.2684889243527,-0.5742146074771881,-58.25308609008789,-0.3150152564048767,-35.750953674316406,0.0279485881328582,1.339687466621399,-0.1930834650993347,-19.331439971923828,L,False,True,2,L,0,,0.228,LeftResponse,correct,True,26.0
62,97,1013.4336666666667,1999,1013.024,1013.031,1013.038,0.5412394636513967,53.82376946802197,0.4929038360714912,45.68722152709961,1.0617011189460754,98.89845275878906,-0.2235754132270813,-28.454805374145508,-0.1854773908853531,-7.506853580474853,L,False,True,2,L,400,,0.296,RightResponse,incorrect,True,25.0
63,98,1019.3996666666667,6808,1018.986,1018.992,1018.999,0.6862887169729823,69.02691882634937,-0.6859876401722431,-68.94561767578125,-0.3963562492281198,-37.74170303344727,-0.0203263517469167,-3.3492276668548584,-0.0457231402397155,-5.33442497253418,L,False,True,2,R,400,,0.368,LeftResponse,incorrect,True,28.0
64,99,1022.8346666666666,6817,1022.611,1022.615,1022.62,0.3263798063037793,38.53274038357393,-0.3201391696929931,-37.95013427734375,-0.0711411386728286,-11.5719633102417,-0.0635192096233367,-6.675282001495361,-0.0355698764324188,-21.803672790527344,L,False,True,2,L,200,,0.378,LeftResponse,correct,True,17.0
65,100,1025.7156666666665,2028,1025.706,1025.71,1025.711,0.1529613037774023,22.201503235953567,0.1295689642429351,13.742173194885254,0.0406243801116943,-3.623860120773315,0.0812960267066955,17.437299728393555,-0.1524474350735545,-14.32082748413086,L,False,True,2,L,0,,0.226,RightResponse,incorrect,True,25.0
66,101,1029.0796666666665,6832,1028.87,1028.876,1028.881,0.6902282224452121,69.73584955044329,-0.472583532333374,-53.102081298828125,-0.2667267322540283,-25.10277366638184,0.5030703768134117,45.20240783691406,0.5081355273723602,52.892578125,L,False,True,2,R,200,,0.223,LeftResponse,incorrect,True,16.0
67,102,1032.6016666666665,9002,1032.496,1032.498,1032.501,0.1746319625016529,22.22358397841001,0.0254072248935699,5.427901744842529,0.180324912071228,29.000282287597656,-0.172773826867342,-21.550535202026367,-0.0940028429031372,-11.455864906311035,L,False,True,2,R,100,,0.254,LeftResponse,incorrect,True,17.0
68,103,1036.5736666666667,2052,1036.465,1036.47,1036.476,0.3634741923594707,40.40331147270941,0.3633320927619934,40.39849853515625,0.5258379578590393,57.41093444824219,0.0101626217365264,-0.623613715171814,-0.0762227028608322,-0.5081596374511719,L,False,True,2,L,100,,0.328,RightResponse,incorrect,True,20.0
69,105,1044.5426666666665,6851,1044.427,1044.434,1044.439,0.538142236646181,52.707097187092245,-0.4598754160106182,-44.18607711791992,-0.1803794801235199,-22.81897354125977,-0.279484648257494,-28.733755111694336,-0.1829127669334411,-16.235881805419922,L,False,True,2,L,100,,0.27,LeftResponse,correct,True,22.0
70,106,1048.1766666666665,2072,1047.769,1047.773,1047.779,0.2570721971057058,28.624419009415245,0.2566197961568832,28.5030517578125,0.2209945917129516,22.76896858215332,-0.0152444988489151,-2.6331357955932617,-0.1295799426734447,-17.462112426757812,L,False,True,2,R,400,,0.389,LeftResponse,incorrect,True,31.0
71,107,1055.2876666666666,2083,1055.275,1055.282,1055.287,0.3413067322539773,31.0576443184213,0.3125154431909323,29.242006301879883,0.7468934953212738,67.59943389892578,-0.1372019797563552,-10.463380813598633,-0.1270349323749542,-17.623170852661133,L,False,True,2,R,0,,0.337,LeftResponse,incorrect,True,28.0
72,109,1062.6906666666666,2100,1062.678,1062.68,1062.685,0.1874823898003249,23.371371446090816,0.1676899194717407,18.27037239074707,0.1422589421272277,18.382858276367188,-0.0838435292243957,-14.57444667816162,-0.0736759305000305,-11.87119197845459,L,False,True,2,R,0,,0.249,RightResponse,correct,True,31.0
73,110,1067.0036666666665,9041,1066.789,1066.795,1066.799,0.2666232011155522,22.947065518948868,0.0355709344148635,5.35874605178833,0.2769319117069244,26.307344436645508,-0.264239739626646,-22.312589645385746,-0.2489683926105499,-28.70757293701172,L,False,True,2,L,200,,0.254,LeftResponse,correct,True,19.0
74,111,1071.0336666666665,2115,1071.024,1071.027,1071.032,0.2314451615685454,27.69227458706113,0.221044585108757,26.79327964782715,0.4115689396858215,47.55465316772461,0.0686014154925942,6.9987311363220215,0.0050815897993743,1.801654577255249,L,False,True,2,L,0,,0.294,RightResponse,incorrect,True,30.0
75,112,1074.4396666666667,2124,1074.329,1074.333,1074.336,0.1515924998209823,17.138205025652066,0.1473609805107116,16.560760498046875,0.2616759538650512,29.193084716796875,-0.0355672240257263,-4.411267757415772,-0.0940058529376983,-12.426312446594238,L,False,True,2,L,100,,0.283,LeftResponse,correct,True,21.0
76,114,1082.3876666666665,6914,1082.176,1082.183,1082.189,0.7467316793010448,75.19868160297588,-0.744441568851471,-75.1836929321289,-0.3785592913627624,-41.15911483764648,-0.0584375858306884,-1.5013433694839478,-0.0355689525604248,-11.34044075012207,L,False,True,2,R,200,,0.244,LeftResponse,incorrect,True,17.0
77,115,1087.8996666666665,2154,1087.84,1087.843,1087.847,0.1742774845527035,21.79509497660017,0.1727707833051681,21.758039474487305,0.4598329365253448,53.835899353027344,-0.0228669643402099,-1.270387053489685,-0.1676897257566452,-15.821945190429688,L,False,True,2,L,50,,0.361,LeftResponse,correct,True,19.0
78,116,1092.4086666666665,6928,1092.345,1092.351,1092.358,0.5488073527812958,56.06156733558812,-0.5488073527812958,-56.0588264465332,-0.287104070186615,-37.09483337402344,0.0,0.5543550848960876,-0.1194166988134384,-11.525833129882812,L,False,True,2,L,50,,0.332,LeftResponse,correct,True,18.0
79,117,1095.7266666666665,6931,1095.664,1095.67,1095.677,0.5265355192124656,48.56248081047725,-0.525922141969204,-48.157371520996094,-0.3709027469158172,-31.63955307006836,-0.0254077464342117,-6.259561538696289,-0.1930972337722778,-19.60983085632324,L,False,True,2,R,50,,0.372,RightResponse,correct,True,17.0
80,118,1100.7856666666667,6939,1100.376,1100.383,1100.389,0.5694102960300543,60.5829397933799,-0.569132462143898,-60.53976821899414,-0.3429794609546661,-32.15053176879883,-0.0177855491638183,2.2867133617401123,-0.1524421572685241,-16.07579231262207,L,False,True,2,L,400,,0.363,LeftResponse,correct,True,33.0
81,119,1103.5126666666665,2178,1103.502,1103.507,1103.513,0.3416392367835073,34.724690312125084,0.2947313636541366,29.79652976989746,0.4827213734388351,51.94483947753906,0.1727738156914711,17.83173942565918,0.3252208232879638,34.970497131347656,L,False,True,2,R,0,,0.252,RightResponse,correct,True,33.0
82,120,1195.5776666666666,7068,1195.163,1195.169,1195.175,0.5323873529548714,55.112749649186206,-0.5310217142105103,-55.11180114746094,-0.2286440134048462,-26.7910099029541,-0.0381081700325012,0.3233391046524048,-0.0584343671798706,-11.54824161529541,L,False,True,3,R,400,,0.225,RightResponse,correct,True,32.0
83,121,1199.5576666666666,2437,1199.496,1199.502,1199.51,0.6580598676047524,68.8214414314367,0.6580549627542496,68.04610443115234,1.1609083116054535,110.20724487304688,-0.0025407373905181,-10.301382064819336,0.0813022553920745,10.53243637084961,L,False,True,3,R,50,,0.265,RightResponse,correct,True,16.0
84,122,1202.5346666666665,2444,1202.123,1202.128,1202.132,0.2458713242402545,31.77617877356528,0.2261288836598396,28.61834716796875,0.3861891701817512,40.65143203735352,0.0965320467948913,13.80998706817627,0.1498860120773315,15.843194007873535,L,False,True,3,L,400,,0.254,LeftResponse,correct,True,31.0
85,123,1208.1836666666666,2453,1208.125,1208.128,1208.13,0.1742973041452209,19.681938758526485,0.1499057710170745,16.214778900146484,0.3582067489624023,44.36578369140625,-0.0889258682727813,-11.15614891052246,-0.0965458452701568,-11.664031982421877,L,False,True,3,L,50,,0.284,RightResponse,incorrect,True,15.0
86,124,1211.1526666666666,2459,1211.044,1211.048,1211.055,0.3811926917710316,42.914857648617605,0.3734942674636841,39.70541763305664,0.4369975328445434,50.3287239074707,-0.0762227028608322,-16.28388214111328,-0.0762197971343994,-10.716961860656738,L,False,True,3,L,100,,0.256,LeftResponse,correct,True,20.0
87,125,1217.3516666666665,2471,1216.939,1216.946,1216.953,0.3868756939998963,33.07711505150473,0.3861992955207824,33.07646179199219,0.2540712803602218,21.156986236572266,-0.0228671543300151,0.2078832685947418,0.0254075080156326,4.226904392242432,L,False,True,3,R,400,,0.286,RightResponse,correct,True,30.0
88,126,1221.0406666666665,2481,1220.834,1220.837,1220.843,0.2047843349776981,18.64659225416944,0.2007087171077728,18.63902282714844,0.2184898853302002,28.801027297973636,-0.040652610361576,-0.5312539339065552,0.0279483944177627,2.0095102787017822,L,False,True,3,L,200,,0.385,LeftResponse,correct,True,20.0
89,127,1224.5916666666665,2491,1224.482,1224.485,1224.491,0.2008672495366356,20.79680757547045,0.2007225826382637,20.395641326904297,0.203252762556076,24.92154693603516,0.0076221227645874,-4.065097808837891,-0.0279476642608642,-1.2010605335235596,L,False,True,3,R,100,,0.249,LeftResponse,incorrect,True,19.0
90,128,1228.3386666666665,2501,1228.327,1228.333,1228.337,0.3553184009881925,37.79330012319087,0.3277602083981037,34.69316482543945,0.5208466537296772,50.69867706298828,-0.1372020840644836,-14.990592002868652,-0.0508152246475219,-3.626362562179565,L,False,True,3,R,0,,0.389,RightResponse,correct,True,32.0
91,129,1230.9406666666666,7124,1230.924,1230.93,1230.936,0.5817452336623194,61.93739436046792,-0.5792932361364365,-61.07078170776367,-0.3633199334144592,-38.5263671875,0.0533560067415237,10.324748992919922,0.0,0.3926184177398681,L,False,True,3,L,0,,0.213,LeftResponse,correct,True,31.0
92,130,1234.5836666666667,2512,1234.175,1234.18,1234.185,0.3788042548277959,45.29279692826452,0.3760335445404053,43.978328704833984,0.8256622403860092,86.44657897949219,-0.0457322299480438,-10.83254623413086,-0.0762185454368591,-9.954654693603516,L,False,True,3,R,400,,0.38,RightResponse,correct,True,29.0
93,131,1237.6106666666665,2518,1237.4,1237.407,1237.413,0.6402560986862605,70.79134215957544,0.6402510572224855,70.14564514160156,1.0085339844226835,98.31283569335938,0.0025407932698726,-9.539527893066406,-0.0228669047355651,-3.233729600906372,L,False,True,3,L,200,,0.335,RightResponse,incorrect,True,19.0
94,132,1241.5156666666664,2524,1241.459,1241.461,1241.463,0.1222223303807651,15.828940180889155,0.1143355751410126,14.528703689575195,0.1829233765602111,28.616554260253903,-0.0431934520602226,-6.282683849334717,-0.0076223686337471,-0.8084332346916199,L,False,True,3,R,50,,0.235,LeftResponse,incorrect,True,18.0
95,133,1246.1376666666665,2535,1245.925,1245.928,1245.933,0.2181659315596529,26.8278557942509,0.2108834981918335,26.44705390930176,0.2337323725223541,27.71532249450684,0.0558974407613277,4.504129886627197,0.1372014135122299,11.98776912689209,L,False,True,3,L,200,,0.396,LeftResponse,correct,True,22.0
96,134,1249.7596666666666,2543,1249.351,1249.354,1249.359,0.2806372426938193,30.719807109388903,0.2083416581153869,23.929298400878903,0.500505805015564,55.29399490356445,-0.1880186572670936,-19.26383209228516,-0.1143337786197662,-13.304285049438477,L,False,True,3,L,400,,0.242,LeftResponse,correct,True,28.0
97,135,1252.9026666666666,9258,1252.793,1252.796,1252.799,0.179822148309011,22.60838383618096,0.0711405128240585,9.100445747375488,0.3099608123302459,35.615447998046875,-0.1651515439152717,-20.69591522216797,-0.0127038955688476,-2.009517192840576,L,False,True,3,R,100,,0.251,RightResponse,correct,True,22.0
98,136,1256.2756666666667,2555,1256.064,1256.069,1256.075,0.3164072438411842,37.19638125943193,0.3099657893180847,36.863380432128906,0.500509649515152,47.811012268066406,-0.0635197088122367,-4.966081142425537,-0.0660598576068878,-3.557071685791016,L,False,True,3,L,200,,0.221,LeftResponse,correct,True,21.0
99,137,1259.6766666666665,2562,1259.564,1259.569,1259.575,0.3165586658915421,29.18168756307081,0.2998005598783493,26.58478355407715,0.5766383409500122,56.00149154663086,0.1016317531466484,12.034125328063965,-0.0355709865689277,-3.118231296539306,L,False,True,3,R,100,,0.268,RightResponse,correct,True,21.0
100,138,1262.4616666666666,2571,1262.449,1262.455,1262.461,0.5746593057485099,58.14101834406896,0.5335566997528076,55.64228820800781,0.5537915825843811,49.49066162109375,-0.2134257853031158,-16.86160659790039,-0.3252207189798355,-25.98536491394043,L,False,True,3,L,0,,0.295,LeftResponse,correct,True,30.0
101,140,1268.7156666666665,2582,1268.654,1268.658,1268.66,0.1608941522062387,20.07807953905339,0.1499068215489387,16.8154354095459,0.2743873000144958,37.32379150390625,-0.0584369152784347,-10.97134494781494,-0.0431934744119644,-9.123759269714355,L,False,True,3,R,50,,0.286,RightResponse,correct,True,20.0
102,141,1272.0416666666665,2589,1271.835,1271.839,1271.844,0.3285761672723586,34.1419201918881,0.2794866561889648,28.664722442626957,0.5131357312202454,52.72245788574219,0.1727700978517532,18.54735565185547,0.1905546933412552,21.8964900970459,L,False,True,3,R,200,,0.208,RightResponse,correct,True,20.0
103,142,1275.4476666666665,7192,1275.023,1275.03,1275.035,0.4600371536445494,46.141254741794135,-0.4598617255687713,-46.07868576049805,-0.2794745415449142,-23.55916786193848,0.012703388929367,2.40210485458374,-0.0431919693946838,-6.998488903045654,L,False,True,3,R,400,,0.21,LeftResponse,incorrect,True,27.0
104,143,1281.0806666666665,2600,1281.022,1281.029,1281.034,0.6001428577140487,67.1510739112118,0.5437080040574074,57.81228256225586,1.0237050354480743,101.21548461914062,-0.2540729343891144,-34.16147994995117,-0.0965494960546493,-10.18621826171875,L,False,True,3,R,50,,0.238,RightResponse,correct,True,19.0
105,144,1284.1236666666666,7205,1284.109,1284.117,1284.124,0.8257527388436933,78.8673136766697,-0.8257371038198471,-78.67062377929688,-0.3302605450153351,-36.55909729003906,-0.0050814449787139,-5.56651782989502,-0.0762231200933456,-6.259519577026367,L,False,True,3,L,0,,0.28,LeftResponse,correct,True,29.0
106,146,1292.3306666666665,7217,1292.265,1292.271,1292.278,0.4344761586963888,43.85673525195794,-0.4344687294214964,-43.53939056396485,-0.2286531031131744,-26.44537353515625,-0.0025407932698726,5.266374111175537,-0.0838385224342346,-7.159749507904053,L,False,True,3,L,50,,0.241,LeftResponse,correct,True,18.0
107,147,1295.4526666666666,7224,1295.236,1295.242,1295.247,0.5034709635974807,51.29525316351458,-0.454797975718975,-46.8426628112793,-0.1371906399726867,-23.442291259765625,-0.2159671559929847,-20.903778076171875,-0.2210422456264495,-26.862266540527344,L,False,True,3,R,200,,0.393,LeftResponse,incorrect,True,19.0
108,148,1300.3576666666665,2643,1300.14,1300.145,1300.151,0.3356100710231178,34.80012589220321,0.3353695422410965,34.737979888916016,0.3099314570426941,28.52200508117676,-0.0127039328217506,2.0788254737854004,-0.0152446627616882,3.464682340621948,L,False,True,3,R,200,,0.388,RightResponse,correct,True,22.0
109,149,1303.2836666666665,7232,1303.171,1303.177,1303.183,0.4216118226610531,40.727446677000174,-0.4065199852921068,-36.956451416015625,-0.2972410321235657,-28.754005432128903,0.1117945909500122,17.11565399169922,0.0203262120485305,-2.9103426933288574,L,False,True,3,L,100,,0.33,LeftResponse,correct,True,20.0
110,150,1307.7096666666666,2648,1307.6,1307.606,1307.614,0.6627497021490059,71.24744999862784,0.6478495895862579,70.44375610351562,1.0719560980796814,104.49490356445312,-0.1397428959608078,-10.671286582946776,0.1244983077049255,14.459417343139648,L,False,True,3,L,100,,0.293,RightResponse,incorrect,True,19.0
111,151,1311.2106666666666,7240,1311.089,1311.093,1311.096,0.2548430590386138,29.843989400941688,-0.2388240694999694,-27.069854736328125,0.0101623833179473,1.6398375034332275,-0.0889272093772888,-12.565296173095703,-0.0431931018829345,-4.896758079528809,L,False,True,3,L,100,,0.247,LeftResponse,correct,True,22.0
112,152,1315.6786666666665,2667,1315.269,1315.277,1315.285,1.0519325676901703,101.629138970544,1.0340580642223358,101.21250915527344,1.313216254115105,127.85971069335938,-0.1930959522724151,-9.192925453186035,-0.0660531520843505,4.064914703369141,L,False,True,3,L,400,,0.366,LeftResponse,correct,True,30.0
113,153,1320.5916666666665,7253,1320.376,1320.384,1320.388,0.545366714710151,57.77901367060974,-0.5284806042909622,-51.06974411010742,-0.1702259480953216,-20.8105411529541,-0.1346592158079147,-27.023983001708984,-0.2007223218679428,-15.221623420715332,L,False,True,3,R,200,,0.27,RightResponse,correct,True,21.0
114,154,1325.2126666666666,2681,1325.202,1325.209,1325.214,0.5782517744228292,60.46879568574283,0.492908351123333,53.61030960083008,0.9298078566789628,91.29512786865234,-0.3023515702225268,-27.97159194946289,-0.1854759454727172,-11.364154815673828,L,False,True,3,R,0,,0.378,RightResponse,correct,True,27.0
115,155,1329.0426666666665,2686,1328.979,1328.983,1328.989,0.297530254481221,33.76458458445256,0.2972589135169983,33.74482727050781,0.1880087256431579,21.895915985107425,0.012703962624073,-1.15490460395813,0.0203263349831104,6.813941955566406,L,False,True,3,L,50,,0.299,LeftResponse,correct,True,17.0
116,157,1335.3966666666665,2705,1335.388,1335.392,1335.397,0.340674106637907,39.0071888750669,0.322680115699768,36.86454772949219,0.6706674695014954,74.91939544677734,-0.1092537865042686,-12.750133514404297,0.0152443349361419,1.5475337505340576,L,False,True,3,R,0,,0.206,LeftResponse,incorrect,True,26.0
117,159,1343.6856666666665,7282,1343.275,1343.279,1343.284,0.4012282322668809,42.45190054663062,-0.3633246496319771,-40.212852478027344,-0.1676871925592422,-23.028188705444336,-0.1702330559492111,-13.604791641235352,-0.1041717156767845,-12.149514198303224,L,False,True,3,L,400,,0.22,LeftResponse,correct,True,29.0
118,160,1421.5036666666665,9445,1421.486,1421.488,1421.491,0.1486923890491048,19.29086212109516,-0.0508155077695846,-6.259546756744385,0.0736828781664371,10.394140243530272,-0.1397397965192794,-18.24706649780273,-0.0431924760341644,-5.358636856079102,L,False,True,4,R,0,,0.398,RightResponse,correct,True,29.0
119,161,1426.2246666666665,2912,1426.015,1426.021,1426.028,0.4851559198321005,50.460874135066135,0.4827481806278229,50.23822021484375,0.746976375579834,76.43004608154297,0.0482748448848724,4.735086917877197,0.1321207098662853,18.22432327270508,L,False,True,4,R,200,,0.334,RightResponse,correct,True,20.0
120,163,1432.1486666666665,2925,1431.937,1431.942,1431.946,0.3443065832712378,39.14796875369593,0.309961587190628,36.077415466308594,0.4598650857806206,50.328521728515625,0.1499027609825134,15.198143005371094,0.1422710120677948,18.26889419555664,L,False,True,4,R,200,,0.264,RightResponse,correct,True,19.0
121,164,1435.4966666666667,7395,1435.081,1435.087,1435.093,0.4824193824359787,52.87974799844158,-0.4420870915055275,-48.75916290283203,-0.2057992219924926,-29.079849243164062,0.1930996221490204,20.46489143371582,0.1575219333171844,14.08918571472168,L,False,True,4,L,400,,0.205,LeftResponse,correct,True,28.0
122,165,1440.7216666666666,2938,1440.663,1440.669,1440.674,0.5005209142112708,58.19872177512324,0.4954391829669475,57.62799453735352,0.6478524506092072,62.59043884277344,-0.0711421221494674,-8.130526542663574,-0.1676921248435974,-13.5123872756958,L,False,True,4,L,50,,0.308,RightResponse,incorrect,True,19.0
123,166,1444.9636666666665,2946,1444.905,1444.91,1444.913,0.2368792466200477,29.954849854457848,0.1854609251022339,19.90868759155273,0.4014129936695099,43.25896453857422,-0.1473635733127594,-22.38162612915039,-0.1549874320626258,-20.672685623168945,L,False,True,4,L,50,,0.246,LeftResponse,correct,True,22.0
124,167,1447.8576666666665,7406,1447.843,1447.85,1447.855,0.4875235366956578,52.16875060183279,-0.4751240909099579,-51.25444412231445,-0.2616987191140651,-29.38047409057617,-0.1092533618211746,-9.72422218322754,-0.2921900190412998,-33.33046340942383,L,False,True,4,L,0,,0.39,LeftResponse,correct,True,28.0
125,168,1451.1506666666667,7409,1451.142,1451.147,1451.152,0.3672664631056586,44.72396488120553,-0.3556941747665405,-44.29993438720703,-0.2642320394515991,-33.99931335449219,-0.0914675295352935,-6.144009113311768,-0.1803923547267913,-17.78507423400879,L,False,True,4,R,0,,0.353,RightResponse,correct,True,27.0
126,171,1465.0396666666666,2969,1464.83,1464.837,1464.844,0.8926552365102535,95.28781337870068,0.8917291164398193,94.90172576904295,1.125337541103363,112.81130981445312,-0.0406516194343566,-8.569120407104492,0.0584382759407162,1.4320815801620483,L,False,True,4,L,200,,0.294,RightResponse,incorrect,True,17.0
127,172,1468.3876666666665,7429,1467.973,1467.979,1467.986,0.4959718588039631,48.792661279616254,-0.4751245677471161,-48.066856384277344,-0.2667827978730201,-27.87938499450684,0.1422839760780334,8.384575843811035,0.2057969570159912,22.28885269165039,L,False,True,4,L,400,,0.256,LeftResponse,correct,True,26.0
128,173,1471.2306666666666,2978,1470.817,1470.823,1470.829,0.4174231920591165,40.88437120825719,0.4166492223739624,40.78714370727539,0.5487621575593948,58.272071838378906,0.0254076123237609,-2.817927837371826,0.1016317042522132,10.41724681854248,L,False,True,4,L,400,,0.212,LeftResponse,correct,True,25.0
129,174,1473.9246666666666,7433,1473.811,1473.818,1473.824,0.712614719612035,73.36036415004229,-0.703790932893753,-73.3589096069336,-0.1575286872684955,-30.974506378173828,-0.1117947287857532,-0.4619626700878143,-0.0558969527482986,-2.817960500717163,L,False,True,4,L,100,,0.265,LeftResponse,correct,True,20.0
130,175,1477.9666666666665,9497,1477.76,1477.765,1477.774,0.5087234590100225,46.82551097593249,0.3124910891056061,34.36673355102539,0.6858945786952972,73.55347442626953,-0.401433527469635,-31.804969787597656,-0.2693198695778847,-27.278268814086918,L,False,True,4,L,200,,0.328,RightResponse,incorrect,True,20.0
131,176,1480.9686666666666,7441,1480.895,1480.9,1480.907,0.4527078432624352,44.941572622295176,-0.4522512955591082,-44.924896240234375,-0.1346603482961654,-16.168489456176758,-0.0203262642025947,1.2241926193237305,-0.0940093593671917,-14.459421157836914,L,False,True,4,L,50,,0.277,RightResponse,incorrect,True,21.0
132,177,1487.9546666666665,7444,1487.931,1487.938,1487.943,0.5247055544515624,56.09589805213605,-0.5157462805509567,-55.06257629394531,-0.0965492278337478,-13.766355514526367,-0.0965489149093627,-10.71739101409912,-0.1499068103730678,-16.93092155456543,L,False,True,4,L,0,,0.248,LeftResponse,correct,True,26.0
133,178,1491.5476666666666,7449,1491.136,1491.143,1491.149,0.6535692349499225,60.747319639494606,-0.6529713869094849,-60.74728012084961,-0.2845437526702881,-31.179744720458984,0.0279483944177627,-0.0692914277315139,-0.1753143756650388,-14.852052688598633,L,False,True,4,R,400,,0.363,RightResponse,correct,True,24.0
134,179,1494.6576666666665,3003,1494.595,1494.601,1494.608,0.4858143681575211,45.49479880808863,0.4801941625773906,44.32381439208984,0.3023424744606018,25.014223098754883,-0.0736828781664371,-10.255544662475586,-0.0228670462965965,0.4157653748989105,L,False,True,4,R,50,,0.318,RightResponse,correct,True,24.0
135,180,1498.1596666666665,9512,1497.95,1497.954,1497.959,0.2751646376173104,29.182310606417825,0.1321170330047607,13.280998229980469,0.35570228099823,39.79685592651367,-0.2413724660873413,-25.98504066467285,-0.1829357855021953,-15.729676246643066,L,False,True,4,R,200,,0.298,RightResponse,correct,True,23.0
136,181,1501.4896666666666,7460,1501.366,1501.372,1501.378,0.5057628525809758,49.40985034815841,-0.4954463802278042,-49.36006927490234,-0.114335523918271,-14.690386772155762,-0.1016314290463924,-2.217402219772339,-0.0254077464342117,-0.831527590751648,L,False,True,4,L,100,,0.336,RightResponse,incorrect,True,19.0
137,182,1504.9786666666666,7462,1504.764,1504.769,1504.774,0.3171988888864088,33.647827738180645,-0.2413712814450264,-24.57599639892578,0.2261190116405487,23.997833251953125,-0.2058034003712237,-22.98253059387207,-0.1651510996744036,-15.960737228393556,L,False,True,4,L,200,,0.306,LeftResponse,correct,True,22.0
138,183,1508.0096666666666,3022,1507.902,1507.904,1507.906,0.1229050124262325,17.117274049027756,0.1067114919424057,14.22821044921875,0.3734641969203949,53.02866744995117,-0.0609778612852096,-9.516254425048828,-0.0914661288261413,-14.94410800933838,L,False,True,4,R,100,,0.306,RightResponse,correct,True,22.0
139,186,1517.4196666666667,7472,1517.36,1517.365,1517.37,0.4548576168623615,50.65405924526053,-0.4344671727158129,-49.59064483642578,-0.4649583734571934,-46.05713272094727,0.13466152921319,10.32480812072754,0.1092538349330425,5.150866508483887,L,False,True,4,L,50,,0.287,LeftResponse,correct,True,23.0
140,187,1524.3636666666666,3036,1523.953,1523.958,1523.964,0.551390547013534,69.23021605833445,0.5284108519554138,66.3055419921875,0.8053458780050278,87.53269958496094,-0.1575230360031128,-19.909744262695312,-0.1549865156412124,-11.156200408935549,L,False,True,4,R,400,,0.342,RightResponse,correct,True,23.0
141,188,1528.3736666666666,7483,1528.253,1528.259,1528.262,0.2992814382358149,35.5037479486834,-0.2286550104618072,-21.89562225341797,0.1956408992409706,19.70269203186035,-0.1930965185165405,-27.94812774658203,-0.2693237662315368,-25.50030517578125,L,False,True,4,R,100,,0.249,RightResponse,correct,True,24.0
142,189,1531.0376666666666,3055,1530.926,1530.93,1530.935,0.2785995391090691,33.8542366675565,0.254060298204422,30.85674285888672,0.2718506455421448,28.316768646240234,-0.1143287718296051,-13.927338600158691,-0.086386039853096,-3.788046598434448,L,False,True,4,L,100,,0.247,LeftResponse,correct,True,23.0
143,190,1533.7816666666665,7495,1533.668,1533.675,1533.682,0.9601120652890224,92.5237235510585,-0.8917988240718842,-88.5106430053711,-0.4776450097560882,-45.177921295166016,0.3556824922561645,26.953765869140625,0.3302981629967689,27.57890892028809,L,False,True,4,R,100,,0.225,RightResponse,correct,True,22.0
144,191,1537.1786666666665,7503,1536.761,1536.762,1536.765,0.1261681306480074,19.070225240930174,-0.1143325120210647,-17.184476852416992,0.1168763190507888,13.697161674499512,-0.0533523559570312,-8.268448829650879,-0.1346523463726043,-17.622554779052734,L,False,True,4,R,400,,0.338,RightResponse,correct,True,22.0
145,192,1540.1096666666665,7511,1540.087,1540.091,1540.096,0.3683125632141675,39.41274534178402,-0.2642012238502502,-33.16386795043945,-0.0254052877426147,-2.355764150619507,-0.2566161677241325,-21.29606437683105,-0.2921744883060455,-32.49690628051758,L,False,True,4,L,0,,0.219,RightResponse,incorrect,True,25.0
146,193,1542.6746666666666,5384,1542.663,1542.668,1542.674,0.3359987436374225,29.98094991905589,-0.0203252434730529,-4.065020084381104,0.0558966845273971,6.675212383270264,0.3353834226727485,29.704090118408203,0.2362923147156834,22.89005279541016,L,False,True,4,R,0,,0.234,LeftResponse,incorrect,True,28.0
147,194,1547.9366666666665,7522,1547.922,1547.929,1547.935,0.6530040197834899,61.87525605592868,-0.65295953117311,-61.78579330444336,-0.2337505631148815,-24.06803321838379,0.0076223686337471,3.326117515563965,-0.0025407932698726,-1.9402410984039309,L,False,True,4,R,0,,0.253,RightResponse,correct,True,31.0
148,195,1551.1466666666665,9581,1551.038,1551.041,1551.046,0.2706077002232233,30.593375567946342,0.1524381339550018,15.959847450256348,0.406491219997406,45.10698318481445,-0.2235869914293289,-26.100534439086918,-0.0711422469466924,-2.3560099601745605,L,False,True,4,R,100,,0.324,RightResponse,correct,True,21.0
149,196,1554.0946666666666,3124,1554.083,1554.087,1554.093,0.2847760666477558,30.348318576549303,0.2743858695030212,28.870630264282227,0.0990905314683914,15.845192909240724,0.0762220621109008,9.354525566101074,0.0584382116794586,11.433555603027344,L,False,True,4,L,0,,0.311,LeftResponse,correct,True,30.0
150,197,1557.4456666666665,7541,1557.032,1557.038,1557.043,0.4293747546737253,48.80529378083555,-0.4293446838855743,-48.77773284912109,-0.1930913627147674,-27.624242782592773,-0.0050815716385841,-1.639963150024414,-0.0508146882057189,-3.8110992908477774,L,False,True,4,R,400,,0.23,RightResponse,correct,True,21.0
151,198,1563.3786666666665,3139,1563.32,1563.327,1563.334,0.4997111494657608,49.08947579437103,0.4953253865242004,48.7935676574707,0.8155027627944946,77.23035430908203,0.0660605356097221,-5.381857395172119,0.0177854597568511,-5.266366958618164,L,False,True,4,R,50,,0.287,RightResponse,correct,True,22.0
152,199,1566.2846666666665,7555,1566.222,1566.228,1566.235,0.538174055255998,55.71198992670119,-0.5258887410163879,-55.15242004394531,-0.3760353401303291,-38.98951721191406,-0.1143343597650528,-7.876317977905273,-0.0940093430690467,-10.57893180847168,L,False,True,4,R,50,,0.286,RightResponse,correct,True,21.0
153,200,1624.4806666666666,3273,1624.424,1624.428,1624.434,0.4095629408894554,41.57501350228676,0.409058291465044,40.443992614746094,0.1676855087280273,20.209856033325195,-0.0203252732753753,9.6314697265625,0.027948735281825,1.5475740432739258,L,False,True,5,R,50,,0.275,RightResponse,correct,True,20.0
154,201,1630.8136666666664,7652,1630.793,1630.799,1630.803,0.4261401497834456,48.49063149295618,-0.3785766959190368,-42.40803146362305,-0.0076223164796829,-6.236454486846924,-0.1956402631476521,-23.513830184936523,-0.2667813086882233,-28.849395751953125,L,False,True,5,L,0,,0.281,LeftResponse,correct,True,29.0
155,203,1636.5966666666666,7659,1636.484,1636.491,1636.497,0.5327216929289298,57.03783645430494,-0.5208593010902405,-56.4284553527832,-0.3404625058174133,-35.84797668457031,0.1117944121360778,8.315299987792969,-0.0279483795166015,1.7092366218566897,L,False,True,5,L,100,,0.204,LeftResponse,correct,True,20.0
156,204,1639.4606666666666,9661,1639.049,1639.052,1639.056,0.1719638207158809,22.37535193733279,0.0381106436252594,3.1643357276916504,0.1981760114431381,22.658601760864254,-0.1676876097917556,-22.150470733642575,-0.1549863815307617,-15.47556209564209,L,False,True,5,R,400,,0.228,LeftResponse,incorrect,True,20.0
157,205,1644.2406666666666,3300,1644.229,1644.235,1644.24,0.3514097270611164,40.496607637743736,0.3480780720710754,39.31176376342773,0.5157473534345627,53.23776245117188,-0.0482747554779052,-9.724220275878906,-0.0609769225120544,-13.096031188964844,L,False,True,5,L,0,,0.29,RightResponse,incorrect,True,28.0
158,207,1651.4386666666664,7679,1651.228,1651.233,1651.239,0.4813080372992385,47.16689717580202,-0.3989017903804779,-39.589969635009766,-0.205789178609848,-21.872329711914062,-0.2693228330463171,-25.63884735107422,-0.1854657530784607,-20.694543838500977,L,False,True,5,L,200,,0.352,LeftResponse,correct,True,20.0
159,208,1653.9786666666666,3320,1653.868,1653.873,1653.877,0.2013481389201062,22.22147478036633,0.1981811565347015,21.458070755004883,0.3658643662929535,38.411094665527344,-0.0355710871517658,-5.774525165557861,-0.0533559024333953,-2.032604932785034,L,False,True,5,L,100,,0.264,LeftResponse,correct,True,19.0
160,209,1659.0616666666665,3325,1658.852,1658.859,1658.866,0.7040266955155721,67.84667624167587,0.6987065970897675,67.8383560180664,0.9781026784330606,89.40181732177734,-0.0863867998123169,-1.0625110864639282,-0.2540782764554024,-26.17005920410156,L,False,True,5,L,200,,0.243,LeftResponse,correct,True,19.0
161,210,1662.5506666666665,7695,1662.536,1662.541,1662.547,0.510197886332909,56.34280419447815,-0.4547999054193496,-51.25455093383789,-0.1626079976558685,-22.497299194335938,-0.2312118709087371,-23.398345947265625,-0.1575283147394657,-19.56400680541992,L,False,True,5,L,0,,0.244,LeftResponse,correct,True,30.0
162,211,1666.4806666666666,3336,1666.417,1666.42,1666.427,0.2828612958744493,28.591499450299963,0.266782246530056,26.79376220703125,0.2998046278953552,28.08669090270996,-0.0940092848613858,-9.978384017944336,-0.1194154471158981,-9.654897689819336,L,False,True,5,R,50,,0.2,LeftResponse,incorrect,True,18.0
163,212,1670.1736666666666,7706,1669.76,1669.766,1669.772,0.5137432370935903,52.43260710085512,-0.5106933042407036,-52.43228149414063,-0.3125104308128357,-33.07581329345703,0.0558968931436538,0.1847828775644302,0.1727739199995994,10.232467651367188,L,False,True,5,L,400,,0.221,LeftResponse,correct,True,23.0
164,213,1673.4216666666666,3354,1673.368,1673.368,1673.377,0.1453711604357895,18.023674807983262,0.1448149979114532,11.848650932312012,0.1753087490797042,31.48205947875977,-0.012703962624073,-13.581690788269045,-0.078761488199234,-21.68852806091309,L,False,True,5,L,50,,0.358,LeftResponse,correct,True,21.0
165,214,1676.8476666666666,3359,1676.636,1676.642,1676.646,0.4426661715485994,48.1239252240736,0.2947155833244324,31.50386428833008,0.6046367883682251,62.86536407470703,-0.3302969336509704,-36.37882232666016,-0.2032631561160087,-20.55730438232422,L,False,True,5,L,200,,0.368,RightResponse,incorrect,True,18.0
166,215,1680.6656666666665,9703,1680.608,1680.61,1680.616,0.2290220726921528,25.54347694519257,0.0127030313014984,7.875856876373291,0.210879310965538,31.94381523132324,-0.2286695055663585,-24.298973083496094,-0.3226798847317695,-29.426986694335938,L,False,True,5,R,50,,0.332,RightResponse,correct,True,20.0
167,216,1684.3336666666667,7726,1684.269,1684.276,1684.282,0.7263765250301395,76.052815412844,-0.7164930999279022,-76.03799438476562,-0.3328374922275543,-48.22810745239258,-0.1194173097610473,-1.5013800859451294,-0.0558965057134628,-7.622262001037598,L,False,True,5,L,50,,0.251,LeftResponse,correct,True,19.0
168,217,1687.8516666666665,3388,1687.441,1687.445,1687.449,0.2460407077369371,29.00042224537188,0.2362834811210632,28.38636779785156,0.5132150650024414,55.3868408203125,-0.0686013586819171,-5.936212062835693,0.083846066147089,7.460679531097412,L,False,True,5,R,400,,0.348,RightResponse,correct,True,22.0
169,218,1690.6326666666666,7737,1690.521,1690.527,1690.532,0.7095112215632658,83.89834408029274,-0.622488260269165,-75.1837158203125,-0.3048902377486229,-34.438899993896484,-0.3404622436501086,-37.23360061645508,-0.3760349527001381,-35.686302185058594,L,False,True,5,R,100,,0.283,LeftResponse,incorrect,True,18.0
170,219,1694.3506666666665,3396,1694.141,1694.144,1694.148,0.2035072301710885,23.8239807230799,0.203253298997879,23.466529846191406,0.4801780134439468,53.97698974609375,-0.010163128376007,-4.111451625823975,-0.0508158970624208,-4.966098785400391,L,False,True,5,R,200,,0.316,RightResponse,correct,True,21.0
171,220,1697.4736666666665,9722,1697.415,1697.416,1697.42,0.1271405184798857,18.119366430047084,0.0050812363624572,-4.111186504364014,0.109248548746109,23.420534133911133,-0.1270389407873153,-17.646800994873047,-0.068601056933403,-10.555758476257324,L,False,True,5,L,50,,0.331,LeftResponse,correct,True,18.0
172,221,1702.5316666666665,3413,1702.125,1702.13,1702.136,0.2698480166976285,24.70203359338941,0.2667682766914367,24.41342544555664,0.3175508379936218,27.852174758911133,0.0406526587903499,3.764986276626587,-0.0533566875383257,-5.1739821434021,L,False,True,5,L,400,,0.202,LeftResponse,correct,True,21.0
173,222,1705.9536666666665,7756,1705.943,1705.95,1705.956,0.503649120162934,50.31852583823076,-0.5030078291893005,-49.81636428833008,-0.3328327536582947,-32.52128982543945,0.0254078730940818,7.091113567352295,-0.0431933626532554,0.3464698493480682,L,False,True,5,R,0,,0.229,LeftResponse,incorrect,True,29.0
174,224,1712.1366666666665,3438,1712.026,1712.032,1712.034,0.3406037280287064,39.03150836786492,0.2210344076156616,22.495943069458008,0.5284678880125284,57.83528137207031,-0.2591422200202942,-31.89657020568848,-0.2845520973205566,-35.10747528076172,L,False,True,5,L,100,,0.206,LeftResponse,correct,True,21.0
175,225,1715.0886666666665,7773,1714.669,1714.673,1714.678,0.344950032464787,37.88187106393902,-0.3226719349622726,-35.24675369262695,-0.200721712782979,-20.62653350830078,0.1219563335180282,13.881732940673828,0.0609788000583648,7.067998886108398,L,False,True,5,L,400,,0.257,LeftResponse,correct,True,20.0
176,226,1717.6736666666666,7777,1717.557,1717.564,1717.571,0.4298798895723304,41.80374622139934,-0.3760196417570114,-32.98268508911133,-0.2515379562973976,-23.62936019897461,0.2083409428596496,25.684541702270508,0.1143357343971729,7.137323379516602,L,False,True,5,R,100,,0.225,RightResponse,correct,True,20.0
177,227,1722.7036666666665,9751,1722.688,1722.69,1722.693,0.1786824621297404,23.622882409716357,-0.0889245569705963,-12.749695777893066,0.1600657105445861,20.672273635864254,-0.1549833714962005,-19.88682556152344,-0.0203260034322738,-4.504049777984619,L,False,True,5,R,0,,0.38,RightResponse,correct,True,31.0
178,228,1727.8906666666664,7790,1727.828,1727.837,1727.843,1.079637641809683,108.49341643681912,-1.0493174195289612,-103.45394897460938,-0.4878281503915787,-46.40341567993164,-0.2540676891803741,-32.681827545166016,-0.0711407214403152,-7.645366668701172,L,False,True,5,L,50,,0.381,LeftResponse,correct,True,17.0
179,229,1733.5986666666665,3475,1733.39,1733.392,1733.398,0.2400853327183685,27.154714208696973,0.185477789491415,23.352169036865234,0.137200579047203,23.62893867492676,-0.1524432897567749,-13.858380317687988,-0.0228669196367263,-0.9701127409934998,L,False,True,5,R,200,,0.269,LeftResponse,incorrect,True,20.0
180,230,1737.8706666666665,7806,1737.648,1737.655,1737.661,0.4864784464531351,50.17282091039242,-0.4547660648822784,-45.68484115600586,-0.1676865220069885,-14.2742280960083,-0.1727689355611801,-20.741437911987305,-0.0635190904140472,-11.364147186279297,L,False,True,5,L,200,,0.349,LeftResponse,correct,True,23.0
181,231,1741.6426666666666,3494,1741.23,1741.237,1741.244,0.8212194391927743,86.37937937658893,0.8155244290828705,86.33340454101562,1.0796882286667824,104.8533172607422,0.0965467393398284,2.8178789615631104,0.0304887592792511,9.123664855957031,L,False,True,5,R,400,,0.305,RightResponse,correct,True,19.0
182,232,1744.7696666666666,7819,1744.347,1744.353,1744.356,0.4354935217222422,50.540753826691365,-0.2896427363157272,-29.588022232055664,-0.0330296158790588,-1.224175214767456,-0.325210228562355,-40.974586486816406,-0.2642411170527339,-31.528764724731445,L,False,True,5,L,400,,0.249,LeftResponse,correct,True,18.0
183,233,1747.8166666666666,3509,1747.704,1747.71,1747.717,0.5865119204803386,65.70165248603449,0.5767222344875336,64.06990051269531,0.6350203156471252,62.048789978027344,-0.1067131534218788,-14.551803588867188,-0.2235837429761886,-12.65755844116211,L,False,True,5,R,100,,0.313,RightResponse,correct,True,19.0
184,234,1750.9896666666666,3520,1750.778,1750.785,1750.791,0.6944321709116725,77.85148306671493,0.6910356283187866,77.81001281738281,1.0619664043188095,113.86519622802734,-0.0685988366603851,2.540732383728028,-0.1397348344326019,-5.56635332107544,L,False,True,5,R,200,,0.365,RightResponse,correct,True,22.0
185,235,1753.9866666666665,3527,1753.875,1753.879,1753.882,0.2241728962891944,27.25981051578465,0.18292897939682,21.896011352539062,0.393816773314029,45.918270111083984,-0.1295780688524246,-16.2376708984375,-0.1702329069375991,-21.735286712646484,L,False,True,5,L,100,,0.251,LeftResponse,correct,True,18.0
186,236,1757.8466666666666,3532,1757.834,1757.839,1757.845,0.3110229845275827,31.78223108450461,0.2972689978778362,31.667125701904297,0.2947279475629329,31.64397621154785,0.0914682447910308,2.7024734020233154,-0.0025407373905181,2.0556800365448,L,False,True,5,L,0,,0.265,LeftResponse,correct,True,30.0
187,237,1760.9686666666666,3535,1760.861,1760.864,1760.867,0.1937004181835366,22.58385349200876,0.1930996221490204,22.566791534423828,0.5106959044933319,60.5398063659668,0.0152442753314971,0.8777006268501282,-0.1473660133779049,-16.838531494140625,L,False,True,5,R,100,,0.269,RightResponse,correct,True,17.0
188,239,1771.0616666666665,3546,1770.652,1770.658,1770.663,0.4578696680681482,53.31473394419309,0.4572983384132385,53.21232604980469,1.0314735099673271,102.42949676513672,-0.0228661894798278,3.30290961265564,-0.1753147095441818,-10.994707107543944,L,False,True,5,R,400,,0.339,RightResponse,correct,True,17.0
