,trialIndex,targetOnsetTime,Unnamed: 0,startTime,peakVelocityTime,stopTime,amplitude,peakVelocity,saccade_vec_left_x,peak_velocity_vec_left_x,saccade_vec_right_x,peak_velocity_vec_right_x,saccade_vec_left_y,peak_velocity_vec_left_y,saccade_vec_right_y,peak_velocity_vec_right_y,whichEye,otherEyeMissingData,isBinocular,blockId,arrowDirection,latency,blankDuration,fixationDurationInSec,response,result,isSaccade,blankDurationInFrameCount
0,0,258.78266666666667,1070,258.572,258.579,258.586,0.7193719271070396,70.8288550807297,0.6885435581207275,67.8151626586914,0.6885443329811096,64.60491180419922,0.2083356380462646,20.440900802612305,0.0762224793434143,6.860018730163574,L,False,True,0,R,200,,0.302,LeftResponse,incorrect,True,4.0
1,1,263.53766666666667,8466,263.523,263.528,263.534,0.3458626862398862,34.725963943591005,-0.332841906696558,-33.42282485961914,-0.2896359860897064,-30.534141540527344,-0.0940067172050476,-9.423765182495115,-0.0304891169071197,-3.164401769638061,L,False,True,0,R,0,,0.283,RightResponse,correct,True,4.0
2,2,269.3496666666667,8470,268.936,268.941,268.946,0.2779065999761031,27.001339616523097,-0.2693066000938415,-26.14542388916016,-0.2540789768099785,-28.47995948791504,-0.0686005353927612,-6.744564533233643,-0.0304889529943466,-3.418459415435791,L,False,True,0,R,400,,0.244,RightResponse,correct,True,4.0
3,5,287.87166666666667,8491,287.809,287.816,287.823,0.734672731592647,69.0346794084645,-0.7088424134999514,-66.49645233154297,-0.6733012646436691,-75.22967529296875,-0.1930970102548599,-18.547473907470703,-0.0863854885101318,-9.585559844970703,L,False,True,0,R,50,,0.228,LeftResponse,incorrect,True,4.0
4,6,293.2266666666667,8502,293.166,293.17,293.174,0.3420550828316841,39.42795568755432,-0.3302935510873794,-38.064640045166016,-0.3557057864964008,-39.82049179077149,-0.0889260917901992,-10.27846622467041,-0.0406520515680313,-4.527162075042725,L,False,True,0,L,50,,0.304,LeftResponse,correct,True,7.0
5,7,296.1736666666667,8512,296.162,296.168,296.174,0.6522574068906057,68.73538665299239,-0.6275413706898689,-66.17271423339844,-0.4547996670007705,-55.34280776977539,-0.1778526157140731,-18.59368896484375,-0.050814926624298,-6.282575607299805,L,False,True,0,L,0,,0.223,NoResponse,incorrect,True,3.0
6,8,301.5156666666667,8528,301.305,301.313,301.32,0.6928005974771791,58.67314359385956,-0.6682127565145493,-56.58917236328125,-0.6910471990704536,-73.63224792480469,-0.1829327195882797,-15.498495101928713,-0.0813044011592865,-8.338318824768066,L,False,True,0,L,200,,0.362,LeftResponse,correct,True,7.0
7,9,306.96566666666666,1139,306.951,306.955,306.96,0.2484908177803463,28.158422721984405,0.2388343811035156,27.04788398742676,0.2566177025437355,30.812631607055664,0.0685990154743194,7.829989910125732,0.0254075229167938,3.2567813396453857,L,False,True,0,R,0,,0.341,LeftResponse,incorrect,True,6.0
8,10,311.2076666666667,8541,310.795,310.8,310.806,0.3531857403572829,36.572415749561664,-0.3404447734355926,-35.26865768432617,-0.4725557267665863,-49.288082122802734,-0.0940081030130386,-9.677984237670898,-0.0533560216426849,-5.520385265350342,L,False,True,0,L,400,,0.209,RightResponse,incorrect,True,2.0
9,11,316.0996666666667,8548,316.087,316.094,316.099,0.46592292573604,41.35566571177647,-0.4496784508228302,-39.88644790649414,-0.4827253818511963,-56.17160415649414,-0.1219568103551864,-10.925308227539062,-0.0508151650428772,-5.705159187316895,L,False,True,0,L,0,,0.299,LeftResponse,correct,True,9.0
10,12,322.7316666666667,8555,322.67,322.676,322.681,0.4334525879316991,48.840306400723726,-0.4166788160800934,-46.9339714050293,-0.2159613519906997,-23.00501251220703,-0.1194148659706115,-13.512137413024902,-0.0254075825214386,-2.817933797836304,L,False,True,0,R,50,,0.296,LeftResponse,incorrect,True,6.0
11,14,335.61766666666665,8568,335.504,335.508,335.513,0.2621018774998208,29.64353192873331,-0.2515321522951126,-28.43307876586914,-0.2820276096463203,-29.519367218017575,-0.0736815482378006,-8.384450912475586,-0.0330296903848648,-3.5801432132720947,L,False,True,0,L,100,,0.385,RightResponse,incorrect,True,4.0
12,15,341.12966666666665,8577,341.02,341.024,341.029,0.2928099763766291,33.28811631228031,-0.2820177972316742,-32.059051513671875,-0.3302698135375976,-39.58592224121094,-0.0787632167339325,-8.9619140625,-0.0355707257986068,-4.0421295166015625,L,False,True,0,R,100,,0.248,LeftResponse,incorrect,True,7.0
13,16,343.9816666666667,8585,343.975,343.979,343.984,0.3777136537379425,40.90111788114284,-0.3607912138104439,-39.10498809814453,-0.200721375644207,-19.54090881347656,-0.1117913424968719,-11.987549781799316,-0.0228667706251144,-2.332871675491333,L,False,True,0,L,0,,0.354,LeftResponse,correct,True,8.0
14,17,346.97566666666665,8593,346.912,346.919,346.924,0.5322348986707267,51.77281514037824,-0.5106887221336365,-49.70603561401367,-0.569127582013607,-59.314640045166016,-0.1499033570289611,-14.482210159301758,-0.0711411088705062,-7.298900604248047,L,False,True,0,L,50,,0.228,RightResponse,incorrect,True,9.0
15,18,354.2406666666667,8601,353.829,353.835,353.84,0.3930321450535892,41.27477581489365,-0.3760354965925216,-39.47457504272461,-0.2515354678034782,-29.911582946777344,-0.1143309772014617,-12.056742668151855,-0.0279482901096344,-3.5108609199523926,L,False,True,0,L,400,,0.223,LeftResponse,correct,True,5.0
16,19,360.5436666666667,8612,360.534,360.54,360.546,0.2949227833772505,27.598326728280583,-0.2819897532463074,-26.44384384155273,-0.3303024172782898,-29.334585189819336,-0.0863783955574035,-7.898782253265381,-0.0431926846504211,-3.6263387203216553,L,False,True,0,L,0,,0.204,RightResponse,incorrect,True,7.0
17,20,364.63666666666666,1214,364.575,364.58,364.584,0.2314403907756653,24.116985242325956,0.2210408896207809,23.051055908203125,0.2032631933689117,22.451356887817383,0.0685972273349762,7.090683937072754,0.0254075080156326,2.6100411415100098,L,False,True,0,R,50,,0.323,LeftResponse,incorrect,True,12.0
18,21,369.74466666666666,8633,369.633,369.636,369.641,0.2411731981915247,28.62487522546214,-0.2312114611268043,-27.486677169799805,-0.3150370121002197,-36.37716674804688,-0.0685986280441284,-7.991624355316162,-0.0279483646154403,-3.48777174949646,L,False,True,0,L,100,,0.331,LeftResponse,correct,True,10.0
19,22,375.4526666666667,8644,375.042,375.048,375.054,0.5001197435823524,46.26570521770495,-0.4802003633230924,-44.39382553100586,-0.4217391610145569,-42.22026062011719,-0.1397403627634048,-13.02703857421875,-0.0381114184856414,-4.065218925476074,L,False,True,0,R,400,,0.233,LeftResponse,incorrect,True,4.0
20,23,378.5006666666667,1235,378.092,378.098,378.105,0.7245213999839838,74.95557149636201,0.6961636692285538,72.04193115234375,0.9146571457386016,85.18446350097656,0.2007172256708145,20.695358276367188,0.0863854885101318,8.199687004089355,L,False,True,0,L,400,,0.208,LeftResponse,correct,True,7.0
21,24,384.9746666666667,8660,384.563,384.567,384.571,0.2016697723159236,22.650941670131388,-0.1905449628829956,-21.387195587158203,0.1803962960839271,21.365760803222656,-0.0660553872585296,-7.460095405578613,0.0228667110204696,2.725527286529541,L,False,True,0,R,400,,0.391,RightResponse,correct,True,6.0
22,25,391.2486666666667,8670,391.237,391.243,391.25,0.453382968735243,40.7237130555264,-0.4344725906848907,-39.0587272644043,-0.4903462380170822,-53.792388916015625,-0.1295750141143798,-11.525477409362791,-0.0609782934188842,-6.490494251251221,L,False,True,0,R,0,,0.264,RightResponse,correct,True,10.0
23,26,397.9146666666667,8680,397.704,397.711,397.717,0.4965310028785918,46.86330474928119,-0.472553014755249,-44.59960174560547,-0.4751253724098205,-45.61859130859375,-0.1524358391761779,-14.389053344726562,-0.060977965593338,-6.143992900848389,L,False,True,0,L,200,,0.349,RightResponse,incorrect,True,6.0
24,27,400.84566666666666,8688,400.784,400.791,400.797,0.5193379119923986,51.1901600334818,-0.497992604970932,-49.03711318969727,-0.4903465509414673,-42.6828498840332,-0.1473608911037445,-14.689929008483888,-0.0584375411272048,-5.035333156585693,L,False,True,0,R,50,,0.384,LeftResponse,incorrect,True,15.0
25,28,405.40866666666665,8697,405.346,405.354,405.36,0.7838750856451537,79.86733497348588,-0.752064436674118,-76.59262084960938,-0.6935476958751678,-64.96611785888672,-0.2210412472486496,-22.635406494140625,-0.0736822336912155,-6.813879013061523,L,False,True,0,L,50,,0.239,LeftResponse,correct,True,18.0
26,29,412.9146666666667,8701,412.903,412.908,412.914,0.5256627609320584,56.93389564427912,-0.503073051571846,-54.46504974365234,-0.4573082029819488,-51.75865936279297,-0.152442917227745,-16.583932876586914,-0.0533560812473297,-6.259524345397949,L,False,True,0,R,0,,0.204,LeftResponse,incorrect,True,9.0
27,30,420.54266666666666,8713,420.33,420.336,420.342,0.5193371608101703,53.988728905072286,-0.4979916363954544,-51.71637344360352,-0.482732892036438,-47.90389251708984,-0.1473615169525146,-15.498373031616213,-0.0558966845273971,-5.589669704437256,L,False,True,0,R,200,,0.292,RightResponse,correct,True,9.0
28,31,423.67766666666665,8717,423.568,423.574,423.58,0.6020723370354893,58.41538458637439,-0.5767511427402496,-55.94294738769531,-0.4039511680603027,-43.88258743286133,-0.1727692633867263,-16.814987182617188,-0.0482745468616485,-5.035336017608643,L,False,True,0,R,100,,0.301,RightResponse,correct,True,9.0
29,35,446.12666666666667,1337,445.914,445.918,445.923,0.3745376888673357,43.18178271217029,0.3582495227456093,41.299198150634766,0.2794691026210785,29.05548477172852,0.1092509031295776,12.61120891571045,0.0177853405475616,1.5937520265579224,L,False,True,0,R,200,,0.201,LeftResponse,incorrect,True,8.0
30,36,449.8486666666667,11862,449.638,449.642,449.646,0.7319407021504861,77.31349248082395,-0.6936158463358879,-73.33468627929688,-0.4420897045638412,-45.50226593017578,-0.2337397038936615,-24.48264503479004,-0.0584373623132705,-6.028523921966553,L,False,True,0,R,200,,0.358,RightResponse,correct,True,11.0
31,37,455.3276666666667,8755,454.914,454.918,454.923,0.297713678970712,35.78196025500383,-0.2871060259640217,-34.53127670288086,-0.2540749460458755,-32.70630645751953,-0.0787627100944519,-9.377612113952637,-0.0304890573024749,-3.5801544189453125,L,False,True,0,R,400,,0.346,RightResponse,correct,True,5.0
32,38,459.6156666666667,1359,459.5,459.509,459.515,0.5256597320426033,49.67696863295433,0.5030706226825714,47.5121955871582,0.6707616448402405,61.34825897216797,0.1524404883384704,14.504912376403809,0.0813039243221283,7.414355278015137,L,False,True,0,R,100,,0.388,LeftResponse,incorrect,True,11.0
33,39,464.43266666666665,8772,464.222,464.229,464.235,0.5118559120952113,49.70658133411305,-0.4878283888101578,-47.443206787109375,-0.5005034655332565,-50.23537826538086,-0.1549836695194244,-14.82856559753418,-0.0609783381223678,-6.120932102203369,L,False,True,0,L,200,,0.226,RightResponse,incorrect,True,10.0
34,40,676.9066666666666,9153,676.894,676.9,676.904,0.4614461284842052,51.81349666622606,-0.459870595484972,-51.71541976928711,-0.3785163760185241,-40.531192779541016,-0.0380994081497192,-3.186501979827881,-0.015243649482727,-5.589365482330322,L,False,True,1,R,0,,0.388,LeftResponse,incorrect,True,12.0
35,41,681.0696666666666,9162,680.96,680.966,680.971,0.4206453438686192,44.34570959936641,-0.4141452684998512,-43.37797546386719,-0.3581885695457458,-35.21866989135742,-0.0736627578735351,-9.213750839233398,-0.0254073739051818,-4.180653095245361,L,False,True,1,R,100,,0.24,RightResponse,correct,True,14.0
36,42,685.7206666666667,9164,685.66,685.666,685.672,0.5275466152924324,53.09447826365592,-0.5208424553275108,-52.50017929077149,-0.4369703233242035,-45.47555541992188,-0.083836555480957,-7.921792507171631,-0.0558916330337524,-7.09040641784668,L,False,True,1,L,50,,0.273,LeftResponse,correct,True,17.0
37,43,690.6496666666667,9171,690.637,690.644,690.65,0.5283889621916884,53.73801510508835,-0.5259398967027664,-53.564151763916016,-0.4954451285302639,-51.64664840698242,0.0508145689964294,4.319249153137207,0.1880038976669311,11.10918140411377,L,False,True,1,R,0,,0.352,RightResponse,correct,True,15.0
38,44,695.3506666666667,1822,695.275,695.281,695.285,0.2393347593726075,23.60537355830997,0.2362810373306274,23.0968074798584,0.2489704489707946,23.60354423522949,-0.0381103456020355,-4.873514652252197,-0.0330291390419006,-3.3260154724121094,L,False,True,1,R,50,,0.267,RightResponse,correct,True,16.0
39,45,698.5556666666666,1826,698.43,698.436,698.441,0.4122611655898574,42.130745089387226,0.3938132226467132,40.58238983154297,0.3480424582958221,34.11125183105469,0.1219443082809448,11.316771507263184,0.2261294913478195,21.527345657348636,L,False,True,1,L,100,,0.24,LeftResponse,correct,True,13.0
40,46,703.5146666666667,1832,703.398,703.404,703.41,0.4140368264117577,39.17803839775005,0.3785606473684311,36.816532135009766,0.4623675942420959,50.09370040893555,-0.1676852107048034,-13.396329879760742,-0.0711386203765869,-7.506518363952637,L,False,True,1,R,100,,0.242,RightResponse,correct,True,12.0
41,47,708.8066666666667,9198,708.396,708.404,708.41,0.8070577147985923,79.45455569506083,-0.7977924644947052,-78.5096435546875,-0.7240793630480766,-71.3237075805664,-0.1219398975372314,-12.217294692993164,-0.0635169744491577,-2.3328053951263428,L,False,True,1,R,400,,0.389,LeftResponse,incorrect,True,4.0
42,48,715.1926666666667,9204,714.98,714.985,714.99,0.4120982798889729,46.10792888962154,-0.4115966856479645,-46.07957077026367,-0.3683909177780151,-45.89286804199219,-0.0203263536095619,-1.6168686151504517,0.0025407820940017,-4.180727005004883,L,False,True,1,L,200,,0.307,LeftResponse,correct,True,13.0
43,49,719.3976666666666,9210,719.178,719.181,719.184,0.1829476600547503,22.261996930107443,-0.1626094952225685,-19.77183723449707,-0.1473625898361206,-18.293291091918945,0.0838331580162048,10.23088264465332,0.149902805685997,18.82447624206543,L,False,True,1,R,200,,0.376,LeftResponse,incorrect,True,12.0
44,50,724.1936666666667,9214,724.174,724.174,724.179,0.1146417193561359,17.40298752530387,-0.1117913424968719,-13.76600456237793,-0.0940049886703491,-9.446648597717283,-0.0254051089286804,-10.647116661071776,0.0228654742240905,8.883303337370307e-08,L,False,True,1,L,0,,0.222,LeftResponse,correct,True,14.0
45,51,729.7186666666666,1865,729.308,729.315,729.321,0.5880194294261093,65.17268234987769,0.5842970907688141,65.03396606445312,0.5969569683074951,59.4173583984375,-0.0660587549209594,-4.249915599822998,0.132114291191101,10.78632354736328,L,False,True,1,L,400,,0.32,LeftResponse,correct,True,7.0
46,52,734.1066666666667,1869,733.998,734.005,734.011,0.7850475278782116,71.75038400576443,0.749446228146553,68.408935546875,0.7392586767673492,75.33433532714844,-0.2337305545806884,-21.64105224609375,-0.0330293178558349,-4.434722900390625,L,False,True,1,L,100,,0.297,LeftResponse,correct,True,11.0
47,53,740.2396666666667,9232,740.129,740.136,740.141,0.6073026948413006,61.80755928776947,-0.6072176545858383,-61.18449401855469,-0.4979732111096382,-51.4378776550293,0.0101628303527832,-8.753974914550781,-0.015244748443365,-0.993218183517456,L,False,True,1,L,100,,0.303,LeftResponse,correct,True,10.0
48,54,743.4286666666667,9236,743.367,743.374,743.38,0.5977199749715152,58.921541833200486,-0.5792737007141113,-55.98780059814453,-0.5564043000340462,-50.16697692871094,0.1473470330238342,18.360671997070312,0.144824530929327,7.784000873565674,L,False,True,1,L,50,,0.379,LeftResponse,correct,True,15.0
49,55,746.6426666666666,12390,746.58,746.585,746.591,0.3097360156434754,34.64965602796298,0.233732134103775,27.530479431152344,0.3378927409648895,35.960227966308594,-0.2032380104064941,-21.039756774902344,-0.2947299377992749,-26.331758499145508,L,False,True,1,R,50,,0.305,LeftResponse,incorrect,True,14.0
50,56,751.6936666666667,9248,751.482,751.49,751.496,0.6596436313924529,67.42642909643695,-0.6250270903110504,-63.8193588256836,-0.5894568860530853,-58.36855697631836,0.2108811438083648,21.7580509185791,0.0228658616542816,1.2703152894973757,L,False,True,1,R,200,,0.208,LeftResponse,incorrect,True,15.0
51,57,754.7196666666666,9254,754.708,754.715,754.72,0.571363249755487,59.93263259964788,-0.5665923058986664,-59.54666519165039,-0.5970629025250673,-61.092681884765625,-0.0736825764179229,-6.790811061859131,-0.0203261971473693,-3.811157941818237,L,False,True,1,L,0,,0.391,LeftResponse,correct,True,13.0
52,58,760.8736666666666,1902,760.661,760.666,760.671,0.3195082707807358,34.33345897531347,0.3150223791599273,33.396026611328125,0.3099199533462524,33.116432189941406,-0.0533519983291626,-7.968174934387207,-0.0050813257694244,3.1642799377441406,L,False,True,1,L,200,,0.363,LeftResponse,correct,True,18.0
53,59,764.5746666666666,1911,764.512,764.517,764.521,0.320503825165917,37.06373739215108,0.3125083744525909,34.7846794128418,0.2870799899101257,27.18344116210937,0.0711422367021441,12.79635524749756,0.2312116101384163,22.47443580627441,L,False,True,1,L,50,,0.336,LeftResponse,correct,True,17.0
54,60,768.1386666666667,1915,767.726,767.733,767.739,0.8285390793152859,82.1838370131993,0.7495035082101822,74.53480529785156,0.5843104720115662,59.193359375,-0.3531593084335327,-34.62290954589844,-0.3683979958295822,-29.37941551208496,L,False,True,1,L,400,,0.202,RightResponse,incorrect,True,6.0
55,61,771.7146666666666,1917,771.503,771.51,771.516,0.6495021467706542,65.96723548641465,0.622456319630146,62.037593841552734,0.6554268002510071,67.41239929199219,-0.1854755207896232,-22.427953720092773,-0.1422844305634498,-11.364272117614746,L,False,True,1,L,200,,0.317,LeftResponse,correct,True,17.0
56,62,774.7546666666667,1924,774.642,774.648,774.653,0.4963093966156092,55.32384354538407,0.3658444881439209,41.272979736328125,0.3277255892753601,30.67074203491211,-0.3353816149756312,-36.84112930297852,-0.299811007687822,-27.509464263916016,L,False,True,1,R,100,,0.287,LeftResponse,incorrect,True,9.0
57,63,780.3036666666667,9286,779.891,779.898,779.905,0.6381414225376824,60.19091931216515,-0.6377316415309906,-59.89292526245117,-0.5360971763730049,-53.54021453857422,-0.0228654444217681,-5.981995582580566,0.0482743680477142,0.4619495868682861,L,False,True,1,R,400,,0.33,LeftResponse,incorrect,True,9.0
58,64,785.7076666666667,9289,785.648,785.655,785.661,0.7239340451322254,79.75892293302472,-0.7215722352266312,-79.29485321044922,-0.5818327069282532,-61.78700256347656,-0.0584295392036438,-8.59139347076416,-0.1473361253738403,-6.9972968101501465,L,False,True,1,R,50,,0.355,LeftResponse,incorrect,True,16.0
59,65,789.1346666666667,9297,789.019,789.023,789.029,0.3640451879806639,33.77935754605959,-0.276938334107399,-26.839195251464844,-0.1524351239204406,-16.144269943237305,-0.2362923147156834,-20.511035919189453,-0.1880148947238922,-19.147878646850582,L,False,True,1,R,100,,0.219,LeftResponse,incorrect,True,12.0
60,66,792.4196666666667,9302,792.306,792.314,792.32,0.6419742707241526,58.57337307680295,-0.6377328932285309,-58.461036682128906,-0.5894479043781757,-54.69551849365234,-0.0736730694770813,-3.625910043716431,-0.114333227276802,-9.169670104980469,L,False,True,1,L,100,,0.261,LeftResponse,correct,True,15.0
61,67,798.9766666666667,9308,798.916,798.924,798.93,0.66930280449493,63.32594258923201,-0.6682168692350388,-62.73396682739258,-0.5818093866109848,-56.01033020019531,-0.0381111502647399,-8.638542175292969,0.0660590976476669,0.369561493396759,L,False,True,1,L,50,,0.305,LeftResponse,correct,True,19.0
62,68,806.0166666666667,9318,805.607,805.616,805.623,0.903853734358693,78.03096375809459,-0.901962786912918,-78.02434539794922,-0.8003195524215698,-75.92196655273438,0.0584354698657989,-1.016282558441162,0.0457325875759124,8.222574234008789,L,False,True,1,L,400,,0.363,LeftResponse,correct,True,12.0
63,69,809.8476666666667,1968,809.835,809.841,809.848,0.5843536108732224,61.24648643629663,0.5843536108732224,61.06853866577149,0.5385946929454803,51.4340705871582,0.0,-4.665370941162109,-0.0990853309631347,-17.045392990112305,L,False,True,1,L,0,,0.259,RightResponse,incorrect,True,12.0
64,70,815.9596666666666,9336,815.746,815.752,815.756,0.309788462376291,32.372944316908374,-0.3074352294206619,-32.360408782958984,-0.2718613557517528,-28.94164657592773,0.0381112992763519,0.9008147120475768,0.058437094092369,9.192862510681152,L,False,True,1,R,200,,0.376,RightResponse,correct,True,16.0
65,71,819.6936666666667,1976,819.281,819.288,819.295,0.6783867619606669,63.933466113258966,0.678367730230093,63.07911682128906,0.6453184559941292,60.21289443969727,0.0050814747810363,-10.416962623596191,-0.0533540844917297,0.762194037437439,L,False,True,1,R,400,,0.38,LeftResponse,incorrect,True,11.0
66,72,824.7776666666666,9345,824.563,824.571,824.578,0.6532466986520256,57.61972658816813,-0.6402736306190491,-56.98279571533203,-0.4878287017345428,-47.6049919128418,-0.1295412182807922,-8.543645858764648,-0.096540629863739,-2.309610366821289,L,False,True,1,L,200,,0.308,LeftResponse,correct,True,15.0
67,73,828.1706666666666,9349,827.76,827.768,827.774,0.9999737975003592,96.31596088903798,-0.990866646170616,-96.26914978027344,-0.8104999363422394,-81.81259155273438,0.1346509754657745,3.002519369125366,0.1702167391777038,11.75562858581543,L,False,True,1,R,400,,0.244,RightResponse,correct,True,14.0
68,74,832.5126666666666,1991,832.449,832.456,832.461,0.4455243414023463,45.56339242228777,0.4319206774234772,43.30751800537109,0.4471323490142822,41.295066833496094,-0.109254140406847,-14.15915298461914,-0.2083435207605362,-25.823501586914062,L,False,True,1,R,50,,0.218,RightResponse,correct,True,18.0
69,75,837.0046666666667,9362,836.594,836.6,836.606,0.4541092866823822,46.47742596141944,-0.4344694875180721,-44.370853424072266,-0.4395344853401184,-42.86799240112305,0.1321041584014892,13.833961486816406,0.2312004566192627,17.48429298400879,L,False,True,1,L,400,,0.369,LeftResponse,correct,True,13.0
70,76,841.4016666666666,9367,841.389,841.395,841.4,0.5521783314968063,61.99313581639556,-0.5488012731075287,-61.78643035888672,-0.4598813951015472,-49.7300910949707,-0.0609759986400604,-5.058251857757568,-0.0838451534509658,-10.971492767333984,L,False,True,1,R,0,,0.254,RightResponse,correct,True,15.0
71,77,844.9946666666667,5220,844.783,844.785,844.788,0.2166613540073388,29.05376601210001,0.1676908358931541,22.15087509155273,0.1143339723348617,14.182031631469728,0.1371930241584777,18.80053329467773,0.0050815045833587,2.4483535289764404,L,False,True,1,R,200,,0.307,RightResponse,correct,True,14.0
72,78,849.5456666666666,9376,849.534,849.538,849.542,0.2108986174941519,26.03718823143221,-0.2108833119273185,-26.031286239624023,-0.2769407406449318,-30.488933563232425,-0.0025407895445823,0.5543534159660339,0.0508151352405548,6.767638683319092,L,False,True,1,R,0,,0.367,RightResponse,correct,True,14.0
73,79,852.7846666666667,9383,852.774,852.781,852.787,0.6324472700087638,63.902963630451424,-0.6224885582923889,-63.773529052734375,-0.5284810066223145,-52.91753005981445,-0.1117924153804779,-4.065187931060791,-0.0762229859828949,-5.150826930999756,L,False,True,1,L,0,,0.317,LeftResponse,correct,True,13.0
74,80,1054.9706666666666,9584,1054.856,1054.863,1054.868,0.4781052657668735,46.54191666219345,-0.4751186268404126,-46.44937896728516,-0.2769366949796676,-30.372764587402344,-0.0533566826488822,-2.933462142944336,-0.0228664875030517,0.7391211986541748,L,False,True,2,R,100,,0.217,RightResponse,correct,True,14.0
75,81,1060.0246666666665,9595,1059.615,1059.62,1059.624,0.341696107254387,36.19177786288826,-0.3378964364528656,-36.09920120239258,-0.266775369644165,-28.894819259643555,-0.0508156269788742,-2.5869784355163574,-0.1346571445465088,-11.456228256225586,L,False,True,2,R,400,,0.395,LeftResponse,incorrect,True,12.0
76,82,1062.8686666666665,9603,1062.855,1062.861,1062.867,0.4458555899029717,46.487389537145305,-0.4446304994635284,-46.40330505371094,-0.4649572968482971,-48.75919342041016,-0.033029168844223,-2.7947568893432617,-0.2134265303611755,-15.52193832397461,L,False,True,2,L,0,,0.3,RightResponse,incorrect,True,12.0
77,83,1068.7016666666666,2261,1068.289,1068.295,1068.3,0.4515704727381208,48.34925726945617,0.4268479198217392,43.58572769165039,0.3430055752396583,31.575044631958008,-0.1473660245537758,-20.926897048950195,-0.0940089523792266,-10.601996421813965,L,False,True,2,L,400,,0.245,LeftResponse,correct,True,15.0
78,84,1075.6126666666667,9609,1075.2,1075.204,1075.208,0.2679783720460382,28.99042990349868,-0.2286619246006012,-26.353870391845703,-0.3252061009407043,-37.20932769775391,0.1397359371185302,12.07967472076416,0.0686011314392089,10.070751190185549,L,False,True,2,R,400,,0.397,RightResponse,correct,True,14.0
79,85,1078.4896666666666,2269,1078.429,1078.434,1078.44,0.4958669263073382,54.04095142870609,0.4878296554088592,53.17167282104492,0.589445486664772,58.806095123291016,-0.0889170169830322,-9.653892517089844,0.0076221525669097,3.4184274673461914,L,False,True,2,L,50,,0.226,LeftResponse,correct,True,17.0
80,86,1084.8386666666665,9615,1084.727,1084.735,1084.741,0.7758526006123007,70.49576654346538,-0.7698239050805569,-69.68372344970703,-0.7215223014354706,-70.44293212890625,-0.0965319275856018,-10.669198036193848,-0.0940079092979431,-14.343761444091797,L,False,True,2,R,100,,0.301,RightResponse,correct,True,13.0
81,87,1089.5386666666666,9622,1089.328,1089.336,1089.342,0.9059125442737344,86.59035165721104,-0.8942633792757988,-86.00823211669922,-0.6783285737037659,-65.40682220458984,-0.1448121070861816,-10.023622512817385,-0.0914647281169891,-9.539169311523438,L,False,True,2,L,200,,0.332,LeftResponse,correct,True,13.0
82,88,1093.7146666666665,9630,1093.653,1093.659,1093.664,0.4131006042917102,44.605796218118186,-0.4039674401283264,-43.81512069702149,-0.3556956499814987,-37.80982971191406,-0.0863852798938751,-8.36135482788086,-0.1270381808280944,-13.604620933532717,L,False,True,2,R,50,,0.332,RightResponse,correct,True,16.0
83,89,1098.9816666666666,9634,1098.969,1098.974,1098.979,0.4785869565474457,53.51232537669218,-0.4776147902011871,-53.28139877319336,-0.4649341553449631,-50.23499298095703,0.0304891318082809,-4.966035842895508,0.0508145987987518,3.626308441162109,L,False,True,2,R,0,,0.397,RightResponse,correct,True,15.0
84,90,1103.0286666666666,9639,1102.916,1102.919,1102.924,0.2118519750564102,26.37190369061021,-0.2108746767044067,-26.330440521240234,-0.2286633998155594,-25.03757095336914,0.0203256011009216,-1.4782443046569824,0.0457331538200378,0.6929253339767456,L,False,True,2,L,100,,0.352,LeftResponse,correct,True,12.0
85,91,1106.9126666666666,9644,1106.852,1106.86,1106.865,0.5680602076689704,53.286535677560245,-0.5588950216770172,-51.77827453613281,-0.4877935945987701,-52.24311828613281,0.1016304790973663,12.588294982910156,-0.025407537817955,-2.7948241233825684,L,False,True,2,R,50,,0.338,RightResponse,correct,True,15.0
86,93,1116.0426666666665,9655,1115.632,1115.636,1115.64,0.2313216566563588,27.287129203236127,-0.2311960458755493,-27.02292823791504,-0.1905507445335388,-21.34171295166016,-0.0076221525669097,-3.787976980209351,0.0914650857448577,8.592169761657715,L,False,True,2,L,400,,0.32,RightResponse,incorrect,True,13.0
87,94,1123.8956666666666,9657,1123.887,1123.889,1123.893,0.1474968344844385,18.71465865203641,-0.144825242459774,-18.66328430175781,-0.1346591413021087,-17.346355438232422,0.0279457569122314,1.3857371807098389,0.0025407522916793,-1.1548913717269895,L,False,True,2,R,0,,0.385,LeftResponse,incorrect,False,14.0
88,95,1127.8626666666667,9663,1127.798,1127.804,1127.809,0.3028729340276039,30.182585549946943,-0.3023504987359047,-29.56520652770996,-0.3683948814868927,-40.00360107421875,0.0177817344665527,6.073469638824463,0.1067119091749191,10.324735641479492,L,False,True,2,L,50,,0.329,LeftResponse,correct,True,14.0
89,96,1132.1176666666665,9669,1131.904,1131.909,1131.914,0.3607397896744363,40.1233271602235,-0.3429813086986542,-36.16901779174805,-0.3429761230945587,-36.76902389526367,0.1117900609970092,17.36903953552246,0.0660605765879154,5.220173358917236,L,False,True,2,R,200,,0.332,RightResponse,correct,True,11.0
90,97,1136.4396666666667,9676,1136.225,1136.232,1136.237,0.5171307721926235,51.6967053596568,-0.5157244801521301,-51.61857986450195,-0.4827217310667038,-46.60898208618164,-0.0381116271018981,-2.8410487174987797,-0.1422839500010013,-12.034086227416992,L,False,True,2,R,200,,0.361,LeftResponse,incorrect,True,10.0
91,98,1141.2356666666665,9681,1141.122,1141.127,1141.133,0.4443130552778534,46.325566951513856,-0.4217658974230289,-44.60194778442383,-0.3683914542198181,-40.37299728393555,-0.1397412568330764,-12.518961906433104,-0.0711382627487182,-2.4482696056365967,L,False,True,2,L,100,,0.268,RightResponse,incorrect,True,11.0
92,99,1147.0856666666666,9691,1146.974,1146.979,1146.985,0.4628347729052016,49.14928504098953,-0.462388277053833,-49.07994079589844,-0.4496706426143646,-52.65767288208008,0.0203250646591186,2.609910249710083,0.0304895229637622,7.506889820098877,L,False,True,2,L,100,,0.253,LeftResponse,correct,True,14.0
93,100,1152.2396666666666,2351,1152.027,1152.032,1152.039,0.4470114436767018,47.100522544582965,0.4370146095752716,46.63497543334961,0.4446260444819927,47.18812561035156,-0.0940077751874923,-6.605928421020508,-0.071141704916954,-6.35194206237793,L,False,True,2,L,200,,0.358,LeftResponse,correct,True,13.0
94,101,1155.3956666666666,2356,1154.984,1154.99,1154.996,0.7489674725001118,80.5586928526717,0.7215719372034073,78.9711685180664,0.8333660364151001,76.1307144165039,-0.2007142603397369,-15.914067268371582,-0.2007215172052383,-13.258282661437988,L,False,True,2,L,400,,0.318,LeftResponse,correct,True,16.0
95,102,1160.6286666666665,9706,1160.216,1160.223,1160.23,0.8360742089006357,85.09058315395883,-0.8180294036865234,-82.21898651123047,-0.6808491945266724,-63.92714309692383,-0.1727656722068786,-21.919069290161133,-0.1499067284166813,-17.993432998657227,L,False,True,2,L,400,,0.322,RightResponse,incorrect,True,15.0
96,103,1165.1296666666665,9710,1164.918,1164.922,1164.926,0.2297972121947828,27.442728574787537,-0.2286568284034729,-27.438840866088867,-0.266765147447586,-33.16655731201172,-0.0228651165962219,0.4619129300117492,-0.0101631768047809,-1.385887622833252,L,False,True,2,R,200,,0.306,LeftResponse,incorrect,True,12.0
97,105,1177.0866666666666,2381,1177.023,1177.03,1177.036,0.6080064228885791,59.12092364026128,0.6072415113449097,59.01520919799805,0.5869153439998627,56.58992385864258,-0.0304886400699615,3.5339348316192627,0.0609790445305407,6.097890853881836,L,False,True,2,R,50,,0.381,RightResponse,correct,True,13.0
98,106,1181.2336666666665,2385,1181.221,1181.229,1181.235,0.7931151093309498,74.14113684227175,0.7342796921730042,72.20414733886719,0.8384469449520111,80.19587707519531,-0.2997747659683227,-16.836545944213867,-0.149906788021326,-12.842558860778809,L,False,True,2,L,0,,0.357,LeftResponse,correct,True,14.0
99,107,1186.3996666666665,9734,1186.287,1186.295,1186.302,0.8263301257844636,80.06873651779355,-0.8180231302976608,-78.89251708984375,-0.7850203216075897,-80.02617645263672,0.1168744415044784,13.673818588256836,0.0508156865835189,7.6223464012146,L,False,True,2,R,100,,0.346,RightResponse,correct,True,13.0
100,108,1191.2376666666667,9747,1191.021,1191.027,1191.032,0.3382897831578708,32.84080589202964,-0.3226647824048996,-32.312583923339844,-0.254065990447998,-28.178150177001957,-0.1016238927841186,-5.86646842956543,-0.0863867215812206,-8.476984977722168,L,False,True,2,R,200,,0.394,LeftResponse,incorrect,True,15.0
101,109,1196.6166666666666,9752,1196.605,1196.611,1196.615,0.3782009723064016,38.24762822086625,-0.3760098814964294,-38.24751663208008,-0.3988782465457916,-41.08856964111328,0.0406515002250671,0.0923904776573181,-0.0127038955688476,-1.6861534118652344,L,False,True,2,L,0,,0.285,LeftResponse,correct,True,13.0
102,110,1199.7766666666666,2412,1199.767,1199.774,1199.781,0.7822396775147392,76.80835057224232,0.7774554491043091,75.9905014038086,0.6986999064683914,63.65650939941406,-0.086382508277893,-11.178837776184082,-0.0076223835349082,9.81670379638672,L,False,True,2,R,0,,0.254,LeftResponse,incorrect,True,12.0
103,111,1205.3976666666665,9762,1204.986,1204.993,1204.999,0.6127971633077264,60.177654040020734,-0.6097566038370132,-59.42806625366211,-0.5411368310451508,-55.2445068359375,0.0609692335128784,9.468631744384766,0.068599909543991,4.758101940155029,L,False,True,2,R,400,,0.207,RightResponse,correct,True,18.0
104,112,1211.3966666666665,9773,1210.986,1210.994,1211.001,0.9621101461219488,87.01455826591624,-0.9272626638412476,-84.52947235107422,-0.6452323496341705,-62.007080078125,-0.2565928399562835,-20.64707374572754,-0.1448249304667115,-12.9118070602417,L,False,True,2,R,400,,0.399,RightResponse,correct,True,17.0
105,113,1214.9146666666666,13170,1214.854,1214.859,1214.865,0.2929568832739093,31.345809717101183,0.2007222287356853,23.23667526245117,0.2667787000536918,27.39403533935547,-0.2133877277374267,-21.0384578704834,-0.1499063316732645,-12.057175636291504,L,False,True,2,L,50,,0.366,RightResponse,incorrect,True,12.0
106,115,1226.2016666666666,2456,1226.192,1226.2,1226.206,0.7375747717303724,67.6334546298946,0.6987098455429077,64.65123748779297,0.5970484763383865,58.66615676879883,-0.2362648844718933,-19.8620662689209,-0.1244974434375763,-5.01224422454834,L,False,True,2,R,0,,0.329,LeftResponse,incorrect,True,15.0
107,116,1229.9776666666667,2462,1229.917,1229.924,1229.931,0.6952322291649733,76.42888323735262,0.6884959489107132,75.03982543945312,0.7063127495348454,70.14659881591797,-0.0965462625026702,-14.50512981414795,0.0076222419738769,-1.2010776996612549,L,False,True,2,L,50,,0.344,LeftResponse,correct,True,15.0
108,117,1234.6996666666666,9806,1234.638,1234.644,1234.649,0.376575442415943,40.85274339683522,-0.3734697103500366,-39.63334274291992,-0.4573134481906891,-47.07088088989258,0.0482642650604248,9.906805038452148,0.0279487394727766,2.979658365249634,L,False,True,2,R,50,,0.224,RightResponse,correct,True,14.0
109,118,1238.7086666666667,9815,1238.596,1238.602,1238.607,0.455498608382028,49.41091009257934,-0.4547895640134811,-48.481483459472656,-0.3302701413631439,-38.24642181396485,-0.0254054069519042,-9.53854274749756,0.015244769398123,-0.6698457598686218,L,False,True,2,L,100,,0.275,LeftResponse,correct,True,12.0
110,119,1242.0766666666666,9818,1241.967,1241.974,1241.98,0.7622381708701168,75.47275482793974,-0.7570341527462006,-75.28722381591797,-0.6554162204265594,-69.71975708007812,0.0889174938201904,5.288728713989258,0.0355706214904785,6.351892471313477,L,False,True,2,R,100,,0.292,RightResponse,correct,True,11.0
111,121,1326.8556666666666,2673,1326.792,1326.796,1326.799,0.1674960794081047,21.20755911317015,0.1651487648487091,20.926549911499023,0.0940081477165222,9.40080451965332,0.0279431939125061,3.440940618515014,-0.0609784126281738,-8.176648139953613,L,False,True,3,L,50,,0.272,LeftResponse,correct,True,13.0
112,122,1332.1016666666665,9978,1331.69,1331.698,1331.703,0.5360496175407934,52.711628561522666,-0.5207810997962952,-52.077293395996094,-0.5818355083465576,-59.638771057128906,-0.1270284950733184,-8.152993202209473,-0.0152445137500762,-2.0557048320770264,L,False,True,3,R,400,,0.311,RightResponse,correct,True,16.0
113,123,1334.9996666666666,9989,1334.939,1334.946,1334.952,0.6460673273516295,63.95519163864353,-0.6173375844955444,-62.634063720703125,-0.6529771983623505,-66.12942504882812,0.1905184984207153,12.932153701782228,0.0863848179578781,13.858609199523926,L,False,True,3,L,50,,0.351,LeftResponse,correct,True,12.0
114,124,1339.1126666666667,9993,1339.099,1339.106,1339.112,0.588528403367499,61.481081340732224,-0.5792381167411804,-61.48055648803711,-0.5792899131774902,-61.3706283569336,0.1041579842567443,0.2540408372879028,0.0254079401493072,-2.956561326980591,L,False,True,3,R,0,,0.362,RightResponse,correct,True,18.0
115,125,1342.2146666666665,2689,1342.204,1342.21,1342.218,0.7280731392825054,67.9325266905685,0.7266356758773327,67.88237762451172,0.591966912150383,58.73510360717773,-0.0457284450531005,-2.6097874641418457,0.0482745915651321,1.9864155054092407,L,False,True,3,L,0,,0.379,LeftResponse,correct,True,17.0
116,126,1347.3606666666665,10007,1347.297,1347.304,1347.31,0.4732511794672092,50.05180988877452,-0.4725690186023712,-49.52046203613281,-0.4573386013507843,-46.03409194946289,0.0254008173942565,7.273755073547363,-0.0025406181812286,-5.127444744110107,L,False,True,3,R,50,,0.255,RightResponse,correct,True,11.0
117,127,1351.5526666666665,13489,1351.337,1351.343,1351.349,0.4941160901118124,50.82271896651076,0.3404655158519745,33.977291107177734,0.6046967133879662,61.416873931884766,-0.3580976724624634,-37.79540252685547,-0.3378803133964538,-27.71406936645508,L,False,True,3,R,200,,0.246,RightResponse,correct,True,18.0
118,128,1354.7086666666667,2708,1354.645,1354.651,1354.657,0.4875318623791993,41.65321286765187,0.4319290742278099,34.046260833740234,0.261699603870511,25.89271545410156,-0.2261074781417846,-23.996713638305664,-0.124488353729248,-15.127861976623535,L,False,True,3,R,50,,0.285,LeftResponse,incorrect,True,10.0
119,129,1359.2056666666665,10024,1358.995,1358.999,1359.003,0.3013448108799488,33.889732473366,-0.2997988015413284,-33.72157287597656,-0.2388341799378395,-28.87261009216309,-0.0304856300354003,-3.371867418289185,-0.0406506061553955,-4.249837398529053,L,False,True,3,R,200,,0.227,RightResponse,correct,True,17.0
120,130,1362.5486666666666,10031,1362.336,1362.341,1362.345,0.2355274687950184,30.59989987157524,-0.2159645780920982,-26.40079116821289,-0.2235878631472587,-26.72433280944824,-0.0939813256263732,-15.47100830078125,-0.0965436398983001,-7.668048858642578,L,False,True,3,R,200,,0.359,RightResponse,correct,True,16.0
121,131,1366.7656666666664,2723,1366.555,1366.562,1366.568,0.7506164767907634,72.88928131054145,0.7393509298563004,71.44119262695312,0.7800027877092361,74.23565673828125,-0.1295580863952636,-14.456947326660156,0.0101631358265876,3.16443395614624,L,False,True,3,L,200,,0.365,LeftResponse,correct,True,15.0
122,132,1371.2626666666665,10041,1370.849,1370.856,1370.861,0.5016404289595333,47.64621185994266,-0.4954215884208679,-47.1399040222168,-0.4192280098795891,-38.29655838012695,-0.0787436962127685,-6.927550315856934,-0.1473596096038818,-14.435731887817385,L,False,True,3,R,400,,0.351,RightResponse,correct,True,15.0
123,133,1373.8356666666666,10048,1373.824,1373.83,1373.836,0.6266214476513134,64.4759357633341,-0.6249507069587708,-64.29673767089844,-0.4852844476699829,-50.69983673095703,-0.0457280278205871,-4.80372953414917,-0.0635192543268203,-4.296204566955566,L,False,True,3,R,0,,0.221,RightResponse,correct,True,16.0
124,134,1376.9456666666665,10052,1376.534,1376.542,1376.548,0.5622479127212725,55.20610719970791,-0.556339293718338,-53.64744567871094,-0.4293922334909439,-45.64176177978516,-0.0812976360321044,-13.02558422088623,-0.2718627257272601,-24.414594650268555,L,False,True,3,R,400,,0.287,RightResponse,correct,True,14.0
125,135,1380.4006666666667,2738,1380.289,1380.295,1380.301,0.5067451722653448,51.23195413163175,0.5030636871233582,51.23044967651367,0.3074315413832664,31.967308044433597,0.0609720945358276,0.3926195204257965,-0.0406520366668701,-9.793437004089355,L,False,True,3,L,100,,0.379,LeftResponse,correct,True,10.0
126,136,1384.4896666666666,10062,1384.476,1384.481,1384.487,0.3477021397939475,35.80404629215914,-0.322668969631195,-35.80076217651367,-0.3811174780130386,-39.93647766113281,-0.1295434832572937,-0.4849314093589782,-0.0914593935012817,-2.1247987747192383,L,False,True,3,L,0,,0.348,RightResponse,incorrect,True,15.0
127,137,1387.7956666666666,10068,1387.383,1387.391,1387.398,0.6955335250446422,63.24095757857323,-0.6910612070932984,-63.21659851074219,-0.5869178026914597,-62.52611541748047,0.0787482857704162,1.7551034688949585,0.0177848935127258,-1.1548746824264526,L,False,True,3,L,400,,0.257,LeftResponse,correct,True,13.0
128,138,1391.7376666666667,2756,1391.634,1391.637,1391.643,0.3077168835657003,34.543384048594085,0.2921810001134872,30.18805885314941,0.1930962800979614,23.744388580322266,-0.0965398550033569,-16.790666580200195,0.0050815045833587,0.8084181547164917,L,False,True,3,L,100,,0.395,RightResponse,incorrect,True,9.0
129,139,1395.4936666666665,10074,1395.381,1395.388,1395.394,0.6702499424333931,70.86351853129085,-0.6656066477298737,-68.96199035644531,-0.5640505105257034,-55.966087341308594,0.0787577033042907,16.305892944335938,0.0889275483787059,5.127776145935059,L,False,True,3,R,100,,0.204,RightResponse,correct,True,12.0
130,142,1415.6106666666665,10093,1415.499,1415.506,1415.512,0.4957778530767746,52.62654819190893,-0.492900300770998,-49.59013366699219,-0.4776574773713946,-41.92178726196289,-0.0533382892608642,-17.61738395690918,-0.1524251103401184,-15.242444038391112,L,False,True,3,R,100,,0.206,RightResponse,correct,True,11.0
131,143,1419.1126666666667,10098,1418.699,1418.703,1418.708,0.2687063055214284,28.29720502069339,-0.2616990879178047,-26.932174682617188,-0.2642334401607513,-25.45332717895508,0.0609644651412963,8.68272876739502,0.0304886102676391,3.0257701873779297,L,False,True,3,L,400,,0.271,LeftResponse,correct,True,12.0
132,144,1422.2176666666667,10102,1422.147,1422.153,1422.156,0.2438040601276002,23.297337908845883,-0.2032542824745178,-18.847108840942383,-0.1499066781252622,-13.697184562683104,0.1346406936645507,13.694978713989258,0.116870641708374,13.511703491210938,L,False,True,3,R,50,,0.267,RightResponse,correct,True,13.0
133,145,1425.1326666666666,2788,1425.119,1425.126,1425.133,0.836412240645233,81.99159678817523,0.7952560484409332,79.50292205810547,0.7723753899335861,74.7662353515625,0.2591394484043121,20.047626495361328,0.1981813376769423,18.73248672485352,L,False,True,3,R,0,,0.364,LeftResponse,incorrect,True,18.0
134,146,1429.7866666666666,2792,1429.574,1429.581,1429.587,0.7118549470757888,67.98524973166187,0.6758357435464859,66.15180206298828,0.8028739392757416,76.869384765625,-0.2235699295997619,-15.682259559631348,-0.0660602003335952,-6.513621807098389,L,False,True,3,L,200,,0.286,LeftResponse,correct,True,14.0
135,147,1433.4846666666665,10121,1433.373,1433.379,1433.384,0.3007482626237662,33.90539231256773,-0.29725182056427,-33.72077941894531,-0.2845655456185341,-28.06384658813477,0.0457260608673095,3.5333642959594727,0.0228670239448547,3.1413280963897705,L,False,True,3,L,100,,0.322,LeftResponse,correct,True,10.0
136,148,1437.7146666666665,13701,1437.493,1437.496,1437.501,0.1954003813193391,24.161083211990945,0.0863856524229049,12.888567924499512,0.1626107357442379,20.695911407470703,-0.1752678751945495,-20.436309814453125,-0.2134264409542083,-24.83045959472656,L,False,True,3,L,200,,0.268,LeftResponse,correct,True,13.0
137,149,1441.5406666666665,10132,1441.329,1441.333,1441.337,0.2568110148188208,31.8666824058582,-0.2566099166870117,-31.82796669006348,-0.1930999662727117,-21.1578369140625,-0.0101611018180847,-1.570345163345337,-0.0457319319248199,-5.520179748535156,L,False,True,3,R,200,,0.327,RightResponse,correct,True,12.0
138,150,1445.5626666666665,10135,1445.545,1445.551,1445.555,0.2878229417131609,26.513429748921485,-0.2871048152446747,-26.49306297302246,-0.2667828053236007,-28.2951717376709,0.0203192234039306,-1.0390242338180542,0.0482714474201202,6.628680229187012,L,False,True,3,L,0,,0.365,LeftResponse,correct,True,21.0
139,151,1448.4346666666665,10141,1448.422,1448.427,1448.432,0.2724402544668821,29.891557774355263,-0.2718594595789909,-29.888338088989254,-0.2667828053236007,-27.90248680114746,-0.0177799463272094,0.4387168288230896,-0.0584347546100616,-7.737424373626709,L,False,True,3,R,0,,0.259,LeftResponse,incorrect,True,20.0
140,152,1453.8556666666666,2828,1453.436,1453.439,1453.442,0.1714415915689859,20.61193244119932,0.1702330186963081,20.34943008422852,0.1956392601132393,23.536762237548828,-0.0203208923339843,-3.2790935039520264,-0.0889220833778381,-11.201886177062988,L,False,True,3,L,400,,0.363,LeftResponse,correct,True,11.0
141,153,1457.6486666666665,10161,1457.585,1457.592,1457.598,0.5134769414386834,51.09407584163304,-0.5131689310073853,-51.062313079833984,-0.4293552935123443,-50.30344772338867,0.0177825093269348,1.8013242483139038,-0.0254079494625329,-7.599285125732422,L,False,True,3,L,50,,0.321,LeftResponse,correct,True,12.0
142,154,1463.3436666666666,2846,1463.131,1463.135,1463.139,0.2218528278178609,24.622024142454997,0.2032576203346252,23.005090713500977,0.1753147095441818,16.168685913085938,-0.088910162448883,-8.775527000427246,-0.0431912839412689,-4.157449722290039,L,False,True,3,L,200,,0.268,LeftResponse,correct,True,11.0
143,155,1468.4026666666666,10178,1468.292,1468.297,1468.301,0.3024212941235769,31.881994931541577,-0.3023252487182617,-31.733692169189453,-0.1981790736317634,-22.427947998046875,-0.0076212286949157,-3.07154393196106,-0.0889253318309784,-8.291967391967773,L,False,True,3,R,100,,0.397,RightResponse,correct,True,9.0
144,156,1472.5366666666666,2860,1472.471,1472.475,1472.481,0.2863884658453832,26.858030643255663,0.2667783200740814,24.899280548095703,0.2896495014429092,31.5981502532959,0.1041522026062011,10.068745613098145,0.1117927134037017,14.389792442321776,L,False,True,3,R,50,,0.329,LeftResponse,incorrect,True,11.0
145,157,1478.0826666666665,10188,1477.659,1477.663,1477.667,0.2234949817997668,23.18708147930817,-0.2210417091846466,-22.543041229248047,-0.1651515401899814,-21.273366928100582,0.0330237746238708,5.426973342895508,0.0025407948996871,4.088102745214428e-09,L,False,True,3,R,400,,0.343,RightResponse,correct,True,10.0
146,158,1482.7576666666666,10196,1482.647,1482.653,1482.66,0.5684748024861642,55.64580237166359,-0.5640066713094711,-55.03847885131836,-0.3582483604550361,-37.99601745605469,0.0711342096328735,8.198851585388184,0.0,-6.698393821716309,L,False,True,3,L,100,,0.241,LeftResponse,correct,True,8.0
147,159,1485.9966666666667,2878,1485.934,1485.942,1485.949,0.92484236915635,92.99891556586782,0.9248284101486206,92.59900665283205,0.8816202282905579,86.86842346191406,0.005081295967102,8.615234375,0.134660854935646,11.110079765319824,L,False,True,3,L,50,,0.345,LeftResponse,correct,True,14.0
148,160,1553.8476666666666,6545,1553.43,1553.434,1553.436,0.1293795942119282,16.855177522812937,0.0431930273771286,6.8369669914245605,0.0152444243431091,-0.8546183705329895,0.1219567209482193,15.406261444091797,-0.020326359430328,-5.4973554611206055,L,False,True,4,L,400,,0.286,LeftResponse,correct,True,9.0
149,161,1558.3976666666665,10326,1558.385,1558.391,1558.397,0.419054223443443,42.56356079423485,-0.4115855246782303,-42.19797897338867,-0.4497172832489013,-48.251686096191406,-0.0787641927599906,-5.566621780395508,-0.0533561408519744,-4.065224170684815,L,False,True,4,L,0,,0.385,LeftResponse,correct,True,23.0
150,162,1562.6826666666666,10332,1562.272,1562.279,1562.284,0.4954794703608338,51.35842005877632,-0.4827026426792145,-48.73155975341797,-0.4293901771306991,-46.05738830566406,-0.1117947418242693,-16.214881896972656,-0.1244961619377136,-13.627580642700195,L,False,True,4,L,400,,0.328,LeftResponse,correct,True,8.0
151,163,1569.3726666666666,10339,1569.261,1569.265,1569.269,0.2185068093240261,25.32990146762314,-0.2185068093240261,-25.107501983642575,-0.2210488691926002,-22.91332626342773,0.0,3.34921669960022,-0.0127039700746536,-0.8546305298805237,L,False,True,4,R,100,,0.311,RightResponse,correct,True,7.0
152,164,1572.3286666666665,10347,1572.214,1572.22,1572.225,0.5646642847653498,53.40811777164789,-0.4166503548622131,-40.87972259521485,-0.2998131066560745,-31.066932678222656,0.3811144661158323,34.369686126708984,0.2540789768099785,15.2909517288208,L,False,True,4,R,100,,0.25,LeftResponse,incorrect,True,6.0
153,165,1575.4306666666666,10354,1575.418,1575.425,1575.432,0.6047110131104826,58.7452589074586,-0.6021221429109573,-58.73435592651367,-0.5665911883115768,-54.99632263183594,-0.0558957457542419,-1.1317588090896606,0.0254079429432749,-3.256836175918579,L,False,True,4,L,0,,0.227,LeftResponse,correct,True,22.0
154,166,1578.7486666666666,10358,1578.687,1578.693,1578.699,0.3734947396367353,35.80354788436039,-0.3734601736068725,-35.79851150512695,-0.3607811331748962,-37.32535552978516,0.0050812661647796,0.6005123853683472,-0.0787646146491169,-4.735114574432373,L,False,True,4,R,50,,0.393,RightResponse,correct,True,13.0
155,167,1582.9706666666666,3050,1582.856,1582.861,1582.867,0.3507723948238646,33.651436724734324,0.2744003534317016,25.59221076965332,0.2362793087959289,21.38753890991211,-0.2185079380869865,-21.850811004638672,-0.1270192861557006,-15.427054405212402,L,False,True,4,R,100,,0.341,LeftResponse,incorrect,True,9.0
156,168,1586.0766666666666,10366,1585.665,1585.672,1585.678,0.6501861360083357,71.4279712037736,-0.6376542747020721,-70.64712524414062,-0.7571442723274231,-76.03833770751953,0.1270395112223923,10.532747268676758,0.1549816727638244,12.657272338867188,L,False,True,4,R,400,,0.38,RightResponse,correct,True,7.0
157,170,1594.5656666666666,10383,1594.552,1594.558,1594.563,0.5152576013665512,55.2705893972692,-0.51067054271698,-55.270545959472656,-0.4446252286434173,-47.92731857299805,0.0686002373695373,0.0692940354347229,-0.0533546805381774,-2.35591721534729,L,False,True,4,R,0,,0.391,RightResponse,correct,True,21.0
158,171,1598.6416666666667,3071,1598.629,1598.633,1598.637,0.2493851801317192,28.814063879826893,0.246456116437912,27.602163314819336,0.1600632965564727,19.00897026062012,-0.0381097197532653,-8.268667221069336,-0.0406527146697044,-5.1739821434021,L,False,True,4,R,0,,0.278,LeftResponse,incorrect,True,20.0
159,172,1602.7176666666667,10395,1602.505,1602.511,1602.517,0.4682381361891614,50.9436412057632,-0.4624043405056,-50.51350784301758,-0.3379231281578541,-35.57086563110352,-0.0736829563975334,-6.60606575012207,-0.0813035517930984,-8.499874114990234,L,False,True,4,L,200,,0.382,LeftResponse,correct,True,9.0
160,173,1609.2746666666665,10399,1609.065,1609.07,1609.075,0.3607603570908321,40.02279399701947,-0.3430024553090334,-38.2500228881836,-0.3150527477264404,-36.1942024230957,0.1117915511131286,11.779634475708008,0.0228671394288539,-1.8016542196273804,L,False,True,4,R,200,,0.324,LeftResponse,incorrect,True,8.0
161,174,1613.0546666666667,10408,1612.843,1612.847,1612.851,0.2556113390891301,29.332018129879355,-0.2540787979960441,-29.12667465209961,-0.1905588270165026,-22.08172607421875,-0.0279485434293746,-3.4646949768066406,-0.0609790571033954,-6.2133965492248535,L,False,True,4,L,200,,0.343,LeftResponse,correct,True,11.0
162,175,1616.2106666666666,10413,1615.998,1616.008,1616.014,0.8478596709260786,75.82482994551165,-0.8460151292383671,-75.80059051513672,-0.790174663066864,-76.59264373779297,-0.0558965355157852,-1.917110800743103,-0.0228642225265502,-2.217139720916748,L,False,True,4,L,200,,0.293,LeftResponse,correct,True,10.0
163,176,1621.1026666666667,10420,1620.692,1620.697,1620.702,0.4061922558851501,45.27258691472754,-0.3963388204574585,-44.85375213623047,-0.3785769641399383,-45.52627944946289,-0.0889251828193664,-6.143943786621094,-0.0939982533454895,-11.940320014953612,L,False,True,4,R,400,,0.364,LeftResponse,incorrect,True,6.0
164,177,1623.9836666666665,10427,1623.87,1623.876,1623.881,0.3617199365060906,40.54326788334463,-0.3506183624267578,-39.42726516723633,-0.4674758464097976,-50.42018127441406,0.0889273658394813,9.447080612182615,0.0457340031862258,2.3790929317474365,L,False,True,4,R,100,,0.238,RightResponse,correct,True,12.0
165,178,1628.6886666666664,10434,1628.627,1628.633,1628.639,0.4806257406951954,49.38272067719352,-0.4776549190282821,-48.96649169921875,-0.3023504130542278,-31.15903854370117,-0.0533561706542968,-6.39810848236084,-0.0025406777858734,1.755379557609558,L,False,True,4,L,50,,0.338,LeftResponse,correct,True,12.0
166,179,1631.8646666666666,3116,1631.75,1631.753,1631.757,0.1948438660074194,23.880219593806533,0.1905557364225387,22.866697311401367,0.2286620438098907,26.33082389831543,0.0406527174636721,6.883243560791016,0.0813033729791641,9.770257949829102,L,False,True,4,L,100,,0.309,LeftResponse,correct,True,11.0
167,180,1636.4576666666665,3122,1636.446,1636.449,1636.455,0.2872100031801423,32.160574153635054,0.287108838558197,29.8889274597168,0.233732134103775,28.61603736877441,0.0076223846990615,-11.872427940368652,0.1117937117815017,15.79894733428955,L,False,True,4,L,0,,0.374,LeftResponse,correct,True,23.0
168,181,1640.8116666666665,10452,1640.75,1640.758,1640.764,0.6646502990172769,64.01496247574279,-0.6630749702453613,-63.9055061340332,-0.5818346738815308,-61.6715202331543,-0.04573405534029,-3.7418854236602783,-0.0863846838474273,-8.10725212097168,L,False,True,4,L,50,,0.248,LeftResponse,correct,True,11.0
169,182,1643.9386666666664,3133,1643.824,1643.832,1643.837,0.5015116013028272,50.85776218961845,0.4573406279087066,47.327911376953125,0.3836279511451721,39.471168518066406,-0.2057995051145553,-18.616680145263672,-0.053356185555458,-5.451101303100586,L,False,True,4,L,100,,0.33,LeftResponse,correct,True,10.0
170,183,1647.9186666666665,3136,1647.908,1647.916,1647.923,0.8792303637827131,83.03196581695545,0.8714283900335431,81.41500091552734,0.8103791177272797,71.22310638427734,-0.1168699860572815,-16.30659294128418,0.0686014294624328,4.296247482299805,L,False,True,4,R,0,,0.358,LeftResponse,incorrect,True,22.0
171,184,1651.1826666666666,10471,1650.972,1650.98,1650.986,0.8299608491088905,79.33690099401183,-0.8053232878446579,-77.18254089355469,-0.7800098657608032,-74.32911682128906,0.2007222287356853,18.362985610961918,0.1880185939371585,15.036877632141112,L,False,True,4,R,200,,0.31,RightResponse,correct,True,9.0
172,185,1655.5676666666666,10479,1655.157,1655.165,1655.172,0.8157049369593774,72.38813813772046,-0.815511018037796,-72.24352264404297,-0.7927151918411255,-73.28966522216797,0.0177854895591735,4.573399066925049,-0.0101630836725234,-1.963330626487732,L,False,True,4,L,400,,0.227,LeftResponse,correct,True,9.0
173,186,1658.5856666666666,3160,1658.474,1658.482,1658.489,0.9718863288135706,96.265029861482,0.9705569446086884,96.2481689453125,0.8027802556753159,76.74455261230469,-0.0508158775046467,-1.8016517162323,-0.1168761663138866,-7.922609806060791,L,False,True,4,L,100,,0.33,RightResponse,incorrect,True,9.0
174,187,1663.0026666666665,14263,1662.588,1662.594,1662.599,0.4583644408869854,46.38048415150551,0.3531662183813751,35.96344375610352,0.3734797686338424,40.83559799194336,-0.2921841591596603,-29.28788185119629,-0.0203263163566589,-1.3165909051895142,L,False,True,4,L,400,,0.266,LeftResponse,correct,True,8.0
175,188,1665.8136666666664,10502,1665.802,1665.811,1665.817,0.8165594867777444,77.64051911356135,-0.7952152891084552,-75.29481506347656,-0.7037747427821159,-65.435546875,0.1854778677225113,18.940460205078125,0.0914685986936092,5.104682445526123,L,False,True,4,L,0,,0.343,LeftResponse,correct,True,25.0
176,189,1668.6606666666667,14282,1668.599,1668.602,1668.608,0.3411509042876722,37.83161139013264,0.1956384554505348,25.523096084594727,0.1397374272346496,17.25351905822754,-0.279480829834938,-27.92494201660156,-0.2820274233818054,-33.723175048828125,L,False,True,4,L,50,,0.389,RightResponse,incorrect,True,10.0
177,190,1674.4146666666666,3181,1674.201,1674.208,1674.215,0.6865233379864596,62.91678661751357,0.6580569446086884,60.07779312133789,0.6580136716365814,66.42549133300781,-0.1956408731639385,-18.68638038635254,-0.0304892808198928,-3.6956539154052734,L,False,True,4,R,200,,0.334,RightResponse,correct,True,8.0
178,191,1677.6166666666666,3187,1677.557,1677.562,1677.568,0.490166748047155,51.0347714225706,0.4674898013472557,49.42830276489258,0.4115992300212383,41.16015625,-0.1473659612238407,-12.703967094421388,-0.1143357381224632,-6.167200565338135,L,False,True,4,R,50,,0.325,LeftResponse,incorrect,True,13.0
179,192,1682.4456666666665,10536,1682.382,1682.385,1682.389,0.2124038122848437,26.077906090738573,-0.2108786851167678,-25.56879234313965,-0.1753142112866044,-22.05864143371582,0.0254078656435012,5.127771854400635,-0.0228665769100189,-3.5570173263549805,L,False,True,4,R,50,,0.284,RightResponse,correct,True,16.0
180,194,1690.0856666666666,10546,1690.072,1690.079,1690.085,0.6692662514347009,60.458882080825305,-0.4471625760197639,-43.676849365234375,-0.3607894703745842,-39.497535705566406,-0.497958779335022,-41.80441665649414,-0.459881380200386,-48.159423828125,L,False,True,4,R,0,,0.32,LeftResponse,incorrect,True,24.0
181,195,1694.1156666666666,3210,1694.004,1694.007,1694.011,0.249047222146445,28.64630494460915,0.2489953748881817,28.64137840270996,0.1371999084949493,16.791969299316406,-0.0050815492868423,-0.5312533974647522,-0.0177855044603347,-3.441611289978028,L,False,True,4,L,100,,0.367,RightResponse,incorrect,True,12.0
182,196,1697.0676666666666,10556,1697.007,1697.012,1697.015,0.439723733865008,49.47656165413384,-0.2439155541360378,-24.899702072143555,-0.0863839089870452,-9.031061172485352,-0.365871787071228,-42.754356384277344,-0.322680115699768,-35.77893829345703,L,False,True,4,R,50,,0.367,LeftResponse,incorrect,True,15.0
183,197,1701.5226666666665,10561,1701.309,1701.316,1701.321,0.5416304154991503,55.39563364765674,-0.5411474853754044,-55.3383903503418,-0.4649629145860672,-48.20558547973633,0.0228671394288539,2.517693519592285,-0.022867128252983,0.7160404324531555,L,False,True,4,L,200,,0.21,LeftResponse,correct,True,7.0
184,198,1705.1326666666666,10569,1705.068,1705.075,1705.081,0.6106599689885305,61.32617574306532,-0.60976601857692,-61.3227653503418,-0.5284795016050339,-53.72591018676758,0.0330302938818931,0.6467465162277222,-0.0609777122735977,-2.9102916717529297,L,False,True,4,L,50,,0.384,LeftResponse,correct,True,18.0
185,199,1708.9336666666666,10579,1708.522,1708.529,1708.537,0.8637555219940861,78.15751284110802,-0.8612256348133087,-78.04061126708984,-0.7546051740646362,-70.00984954833984,-0.0660606366582214,-4.273149490356445,-0.1270389184355735,-12.773194313049316,L,False,True,4,R,400,,0.229,RightResponse,correct,True,6.0
186,200,1803.2466666666667,10754,1802.832,1802.84,1802.846,0.6699941225961907,65.36340777438473,-0.6656443178653717,-64.02375793457031,-0.7012158297002316,-69.56685638427734,0.0762218236923217,13.16561794281006,0.1524469517171383,6.282670974731445,L,False,True,5,L,400,,0.343,LeftResponse,correct,True,5.0
187,201,1808.5296666666666,10756,1808.466,1808.471,1808.476,0.3358198085431053,34.77648389995584,-0.3175522089004516,-33.279510498046875,-0.2743970453739166,-25.22233390808105,-0.1092498898506164,-10.093463897705078,-0.0609790105372667,-7.714767932891846,L,False,True,5,L,50,,0.387,LeftResponse,correct,True,17.0
188,202,1811.6736666666666,10760,1811.613,1811.618,1811.624,0.4258335427869323,49.794160801705445,-0.4115799069404602,-48.68737411499024,-0.4065191633999347,-43.77009582519531,0.109252855181694,10.440213203430176,-0.0330302491784095,-1.5013750791549685,L,False,True,5,R,50,,0.362,LeftResponse,incorrect,True,16.0
189,203,1816.9236666666666,10763,1816.711,1816.719,1816.725,0.6236747831161451,58.9993397355338,-0.6223484873771667,-58.9320068359375,-0.4979448616504669,-47.6922721862793,-0.0406521260738372,-2.817917585372925,-0.0584382116794586,-7.160407066345215,L,False,True,5,L,200,,0.231,LeftResponse,correct,True,6.0
190,204,1820.9456666666665,10769,1820.535,1820.542,1820.548,0.5618953437742872,54.378582288167806,-0.5613206028938293,-54.2382926940918,-0.5081236362457275,-49.7265739440918,0.0254078358411788,-3.903564691543579,-0.0863862931728363,-6.8370041847229,L,False,True,5,L,400,,0.364,RightResponse,incorrect,True,4.0
191,205,1825.9576666666665,10772,1825.745,1825.752,1825.759,0.7071126636244333,71.03436258398165,-0.7011719048023224,-69.67853546142578,-0.622476015239954,-60.215274810791016,0.0914673656225204,13.81239891052246,0.0558960437774658,4.758093357086182,L,False,True,5,R,200,,0.256,LeftResponse,incorrect,True,5.0
192,206,1829.1096666666665,10780,1829.047,1829.053,1829.059,0.4032441501443064,39.18961397361874,-0.4014392751269042,-38.96600341796875,-0.3404646068811416,-35.87114334106445,0.0381097495555877,4.18048095703125,-0.022866666316986,-4.758133888244629,L,False,True,5,L,50,,0.262,LeftResponse,correct,True,19.0
193,207,1833.2766666666666,10787,1833.065,1833.072,1833.078,0.5595213653228237,55.40195944364838,-0.5411278009414673,-55.17475891113281,-0.5055949985980988,-51.6680908203125,0.1422844380140304,5.012293815612793,-0.0330303311347961,-5.705238342285156,L,False,True,5,L,200,,0.292,LeftResponse,correct,True,8.0
194,208,1839.2806666666665,10794,1838.87,1838.875,1838.88,0.3119933988592313,33.31603011128655,-0.2997967004776001,-32.88978576660156,-0.2566197216510772,-26.10085678100586,-0.0863818228244781,-5.312236309051514,-0.0990895181894302,-13.373605728149414,L,False,True,5,R,400,,0.26,LeftResponse,incorrect,True,7.0
195,209,1842.1286666666665,3479,1842.117,1842.123,1842.129,0.4458017042871902,45.46885885784503,0.4140873253345489,42.309757232666016,0.3861974030733108,38.78150177001953,-0.1651388704776764,-16.652374267578125,-0.1600615382194519,-16.675804138183594,L,False,True,5,R,0,,0.313,RightResponse,correct,True,27.0
196,210,1845.9706666666666,3483,1845.858,1845.865,1845.872,0.7492276862710756,72.3349724137333,0.6961632966995239,65.13561248779297,0.6529736965894699,62.57216262817383,-0.2769454643130302,-31.45950126647949,-0.0787646323442459,-5.150874137878418,L,False,True,5,R,100,,0.254,RightResponse,correct,True,15.0
197,211,1850.1966666666665,3491,1850.084,1850.088,1850.093,0.2667601894141482,27.622875475383143,0.2540678679943084,25.91486167907715,0.2312110108323395,24.137414932250977,-0.0813050866127014,-9.562593460083008,-0.0686012618243694,-7.668562889099121,L,False,True,5,L,100,,0.386,LeftResponse,correct,True,14.0
198,212,1852.8696666666665,3498,1852.856,1852.863,1852.869,0.6157155513853164,68.35692879874057,0.6148290634155273,67.60424041748047,0.5691332817077637,55.897117614746094,-0.0330282151699066,-10.116145133972168,-0.0762215554714202,-5.173808097839356,L,False,True,5,L,0,,0.298,LeftResponse,correct,True,26.0
199,213,1856.3376666666666,10825,1856.275,1856.28,1856.286,0.4191233409650785,44.26496910740529,-0.4090216755867004,-44.25108337402344,-0.3252201527357101,-35.50170135498047,-0.0914638936519622,-1.1086524724960327,-0.0889278091490268,-8.107444763183594,L,False,True,5,R,50,,0.249,LeftResponse,incorrect,True,18.0
200,214,1859.9596666666666,10829,1859.846,1859.853,1859.859,0.4115698530283917,40.93697446937247,-0.4115384817123413,-40.807220458984375,-0.4217641970608383,-36.47113800048828,0.0050815343856811,3.2567832469940186,0.0254061222076416,4.480755805969238,L,False,True,5,R,100,,0.309,RightResponse,correct,True,13.0
201,215,1863.2866666666666,10834,1863.064,1863.068,1863.071,0.2012201550186477,24.114952413365287,-0.1829190254211425,-21.82554244995117,-0.1626083552837371,-19.56382751464844,0.0838461741805076,10.255565643310549,0.1092531681060791,13.442987442016602,L,False,True,5,L,200,,0.319,RightResponse,incorrect,True,7.0
202,216,1866.1556666666665,10842,1866.094,1866.098,1866.101,0.2205442987192795,26.724354317867423,-0.2006823420524597,-24.409740447998047,-0.2998093627393245,-34.854530334472656,0.091467946767807,10.87913990020752,0.1270379275083542,14.135860443115234,L,False,True,5,L,50,,0.323,LeftResponse,correct,True,21.0
203,217,1869.9776666666667,10847,1869.865,1869.873,1869.88,0.8566028478937041,74.16222700105926,-0.8459538966417313,-73.6946792602539,-0.6453490555286407,-64.74308776855469,-0.1346493363380432,-8.314455032348633,-0.0457324683666229,5.497136116027832,L,False,True,5,L,100,,0.258,RightResponse,incorrect,True,12.0
204,218,1877.2216666666666,14820,1877.009,1877.016,1877.022,0.8063147195164934,79.42633769032395,0.7495235800743103,76.31553649902344,0.7977706491947174,77.97594451904297,-0.2972504496574402,-22.01095199584961,-0.152442067861557,-7.668240070343018,L,False,True,5,R,200,,0.367,LeftResponse,incorrect,True,10.0
205,219,1880.2526666666665,14829,1879.847,1879.851,1879.856,0.2325963649365242,22.19319951788332,0.0254063308238983,1.7091501951217651,0.1041723228991031,10.62511920928955,-0.2312046438455581,-22.12728881835937,-0.1270380914211273,-12.3111572265625,L,False,True,5,R,400,,0.267,RightResponse,correct,True,10.0
206,220,1883.5706666666665,10871,1883.357,1883.366,1883.372,0.7292456950777201,66.97204523745006,-0.7290863394737244,-66.94903564453125,-0.5360902715474367,-54.27876663208008,0.0152444541454315,-1.7554115056991575,0.0177855193614959,-0.4157659411430359,L,False,True,5,R,200,,0.291,LeftResponse,incorrect,True,13.0
207,221,1889.4746666666665,3553,1889.463,1889.468,1889.473,0.3103385721627723,31.52975753902924,0.3099639415740967,31.527591705322266,0.3353818468749523,37.4185905456543,0.0152441561222076,0.3695561289787292,0.0711413472890853,7.275808334350586,L,False,True,5,L,0,,0.359,RightResponse,incorrect,True,25.0
208,222,1893.6996666666666,3558,1893.588,1893.596,1893.601,0.648577266851876,59.48349883873884,0.6427983902394772,58.92202377319336,0.6834499016404152,67.07447814941406,-0.0863869236782193,-8.153634071350098,-0.0584382740780711,-5.728337287902832,L,False,True,5,L,100,,0.381,LeftResponse,correct,True,15.0
209,223,1897.2596666666666,10893,1897.147,1897.152,1897.157,0.416664478542494,47.86800856559012,-0.4166567325592041,-47.832332611083984,-0.4090630002319813,-42.15353393554688,0.002540647983551,1.8477556705474851,-0.0228671208024024,-6.652252674102783,L,False,True,5,R,100,,0.227,LeftResponse,incorrect,True,14.0
210,224,1900.1696666666667,10897,1900.109,1900.114,1900.119,0.4453946909223397,45.22026042936173,-0.4013590812683105,-42.283687591552734,-0.3379220603965223,-33.907718658447266,0.193099245429039,16.030025482177734,0.1295800320804119,7.899536609649658,L,False,True,5,R,50,,0.277,LeftResponse,incorrect,True,20.0
211,225,1904.4796666666666,10899,1904.417,1904.423,1904.429,0.7164669131132608,74.59789851963843,-0.7036989033222198,-73.18781280517578,-0.6249998211860657,-62.82332611083984,0.1346576809883117,14.43573760986328,0.1422840822488069,9.724305152893066,L,False,True,5,L,50,,0.345,RightResponse,incorrect,True,23.0
212,226,1908.8836666666666,3575,1908.771,1908.775,1908.78,0.2388676823910367,28.789159005395675,0.2083238363265991,23.23430633544922,0.2616962194442749,24.46041679382324,-0.1168715059757232,-16.99949073791504,-0.1499060019850731,-14.366950035095217,L,False,True,5,L,100,,0.209,LeftResponse,correct,True,17.0
213,227,1911.5446666666667,7341,1911.434,1911.438,1911.444,0.3848771506023389,44.250378528486,0.2413356900215149,30.230587005615234,0.1524475961923599,19.61030387878418,0.299812451004982,32.31420135498047,0.195639930665493,18.06260871887207,L,False,True,5,R,100,,0.253,LeftResponse,incorrect,True,16.0
214,228,1915.4616666666666,10915,1915.451,1915.459,1915.464,0.4554461376374752,38.22601565661058,-0.4547369182109833,-38.22129821777344,-0.5233955085277557,-44.85577774047852,0.025407075881958,0.6005293726921082,-0.2007222548127174,-19.4716911315918,L,False,True,5,R,0,,0.215,RightResponse,correct,True,28.0
215,229,1919.1046666666666,10919,1918.694,1918.701,1918.707,0.5640892524733598,50.259167621205286,-0.5385875701904297,-50.00162124633789,-0.4573375359177589,-48.25130462646485,-0.1676905304193496,-5.081515789031982,-0.2464548945426941,-23.121055603027344,L,False,True,5,L,400,,0.286,RightResponse,incorrect,True,9.0
216,230,1922.4106666666667,10922,1922.401,1922.406,1922.41,0.3006079205359122,35.62898520446663,-0.2819808721542358,-33.41731643676758,-0.1803939491510391,-17.854555130004883,-0.104172499384731,-12.357489585876465,-0.0381118915975093,-6.144094944000244,L,False,True,5,L,0,,0.331,LeftResponse,correct,True,27.0
217,232,1929.2766666666666,3609,1929.266,1929.274,1929.281,0.9758941783538944,96.09748828234083,0.9654664993286132,95.50831604003906,0.8435247540473938,82.89734649658203,-0.1422810107469558,-10.62491512298584,-0.1168762184679508,-8.453896522521973,L,False,True,5,R,0,,0.389,RightResponse,correct,True,26.0
218,233,1933.9936666666665,10942,1933.983,1933.991,1933.997,0.9627137420112536,89.71951052368419,-0.9602664560079576,-88.841796875,-0.6681944392621517,-65.6186294555664,-0.0686008930206298,-12.519013404846191,0.0076223760843276,-3.141345739364624,L,False,True,5,R,0,,0.3,RightResponse,correct,True,25.0
219,234,1937.5156666666664,14962,1937.304,1937.311,1937.316,0.5863672566602958,58.09403714286116,0.5284661501646042,53.35505676269531,0.602162316441536,59.70818328857422,-0.2540670931339264,-22.981624603271484,-0.2337517482228577,-23.53684425354004,L,False,True,5,L,200,,0.311,LeftResponse,correct,True,15.0
220,235,1942.3156666666666,10961,1941.903,1941.907,1941.911,0.1930755669413512,24.066296783663745,-0.1930588483810424,-24.063093185424805,-0.2108776569366455,-22.91248321533203,0.0025407895445823,-0.3926668167114258,-0.0050815865397453,0.6929412484169006,L,False,True,5,R,400,,0.384,RightResponse,correct,True,12.0
221,236,1946.0506666666665,10969,1945.637,1945.642,1945.647,0.2876368978387711,27.856478144744315,-0.2718430757522583,-26.46826934814453,-0.2845557183027267,-32.12785720825195,-0.0940017402172088,-8.684128761291504,-0.0533566884696483,-4.157663822174072,L,False,True,5,R,400,,0.295,RightResponse,correct,True,11.0
222,237,1949.8146666666667,10976,1949.4,1949.407,1949.413,0.4960794038213169,45.86129546280122,-0.4166133403778076,-40.3218002319336,-0.2794785797595978,-28.80241584777832,-0.2693104147911072,-21.849733352661133,-0.195637434720993,-24.1601676940918,L,False,True,5,L,400,,0.387,LeftResponse,correct,True,10.0
223,238,1953.9236666666666,10984,1953.912,1953.919,1953.926,0.6962141396096019,65.49909036426592,-0.6959869265556335,-65.48721313476562,-0.533533126115799,-54.71562957763672,-0.0177855631336569,-1.2472988367080688,0.0228667557239532,1.1317846775054932,L,False,True,5,L,0,,0.217,RightResponse,incorrect,True,24.0
224,239,1958.8406666666665,10995,1958.777,1958.782,1958.787,0.3040132534159514,31.715488545443375,-0.2997363209724426,-31.128278732299805,-0.2235890077427029,-24.507015228271484,-0.0508153140544891,-6.074740886688232,-0.1295803575776517,-14.852076530456545,L,False,True,5,R,50,,0.334,RightResponse,correct,True,26.0
