,trialIndex,targetOnsetTime,Unnamed: 0,startTime,peakVelocityTime,stopTime,amplitude,peakVelocity,saccade_vec_left_x,peak_velocity_vec_left_x,saccade_vec_right_x,peak_velocity_vec_right_x,saccade_vec_left_y,peak_velocity_vec_left_y,saccade_vec_right_y,peak_velocity_vec_right_y,whichEye,otherEyeMissingData,isBinocular,blockId,arrowDirection,latency,blankDuration,fixationDurationInSec,response,result,isSaccade,blankDurationInFrameCount
0,1,232.05166666666668,8279,231.986,231.991,231.996,0.2696058859134595,31.75034614123995,-0.2693064212799072,-30.18717384338379,-0.1524474350735545,-28.433727264404297,0.0127037465572357,9.839665412902832,-0.1727688610553741,-16.376148223876953,L,False,True,0,L,50,,0.276,RightResponse,incorrect,True,4.0
1,8,273.0776666666667,1035,272.961,272.968,272.975,0.5401276693794733,56.71490152711377,0.5385956466197968,56.6075553894043,0.5462606549263,56.10462188720703,-0.0406525358557701,-3.4877970218658447,-0.2159668188542127,-22.982542037963867,L,False,True,0,L,100,,0.399,RightResponse,incorrect,True,4.0
2,10,286.89166666666665,8393,286.828,286.836,286.843,0.6229490619782637,58.512307948037616,-0.6224307268857956,-58.409645080566406,-0.6478596180677414,-54.83125305175781,-0.0254071652889251,-3.4646129608154297,-0.2820107638835907,-21.75736618041992,L,False,True,0,L,50,,0.352,RightResponse,incorrect,True,7.0
3,12,294.78566666666666,8423,294.765,294.774,294.779,0.6638958226915251,66.9073615799187,-0.6122939884662628,-62.63938522338867,-0.5843565128743649,-41.73689651489258,-0.2566198259592056,-23.513877868652344,-0.2820004522800445,-30.601192474365234,L,False,True,0,L,0,,0.247,RightResponse,incorrect,True,4.0
4,13,301.52166666666665,8436,301.407,301.415,301.421,0.6102725397733846,58.32827324961969,-0.6072183549404144,-58.25093078613281,-0.607222743332386,-57.39698028564453,-0.0609790310263633,-3.0027525424957275,-0.221031904220581,-12.656867027282717,L,False,True,0,R,100,,0.341,LeftResponse,incorrect,True,7.0
5,14,304.73966666666666,12595,304.625,304.632,304.639,0.8373826538106287,82.33224983720729,0.604684429243207,68.78377532958984,0.6427246034145355,68.75299072265625,-0.5792809766717255,-45.24811172485352,-0.5561856031417847,-52.73112487792969,L,False,True,0,R,100,,0.336,RightResponse,correct,True,10.0
6,15,310.79766666666666,1146,310.387,310.394,310.4,0.5796613669386449,61.19066069161682,0.5767081826925278,59.77271270751953,0.5944871455430984,65.5456771850586,0.0584377646446228,13.096555709838867,0.1321102380752563,16.352067947387695,L,False,True,0,L,400,,0.304,LeftResponse,correct,True,4.0
7,16,316.37666666666667,8479,315.956,315.965,315.972,0.7400926999732698,69.92094655585052,-0.706313394010067,-68.3454818725586,-0.7088394835591316,-54.113502502441406,-0.2210398018360138,-14.759196281433104,-0.3455111682415008,-27.529075622558597,L,False,True,0,R,400,,0.361,LeftResponse,incorrect,True,3.0
8,18,325.6646666666667,8499,325.639,325.646,325.652,0.4831503054732781,42.24348076991555,-0.4700385928153991,-40.51365661621094,-0.4420396089553833,-44.04286575317383,-0.1117941811680793,-11.964752197265623,-0.2108156085014343,-19.627338409423828,L,False,True,0,R,0,,0.306,LeftResponse,incorrect,True,7.0
9,19,332.0436666666667,8512,331.827,331.834,331.839,0.5911938393499978,53.61384577351234,-0.5513271316885948,-49.88985824584961,-0.6376850605010986,-50.905391693115234,-0.2134210616350174,-19.63279151916504,-0.335220456123352,-31.51531982421875,L,False,True,0,L,200,,0.266,RightResponse,incorrect,True,3.0
10,23,360.3376666666667,1251,360.225,360.233,360.24,0.7283018644581956,68.5835138633217,0.7062520682811737,67.02200317382812,0.8510472774505615,87.38497924804688,0.1778528094291687,14.551613807678224,0.4063200950622558,39.49971771240234,L,False,True,0,L,100,,0.284,RightResponse,incorrect,True,9.0
11,24,363.7356666666667,8584,363.675,363.681,363.688,0.4506247689009592,43.077088608902216,-0.4471445679664612,-42.75111389160156,-0.7672395408153534,-64.73888397216797,-0.0558964908123016,-5.289406776428223,0.0381017327308654,10.530174255371094,L,False,True,0,R,50,,0.36,RightResponse,correct,True,10.0
12,26,373.2606666666667,5610,372.845,372.848,372.857,0.3800130705248341,30.625354051673398,-0.0330269336700439,6.466696739196777,0.4547929146792739,14.967551231384276,0.3785751648247242,29.93483161926269,0.0634939670562744,-12.353111267089844,L,False,True,0,L,400,,0.324,LeftResponse,correct,True,5.0
13,27,380.1426666666667,8622,379.93,379.935,379.941,0.307663483155797,36.3410657086467,-0.3074010908603668,-35.38238525390625,-0.5132200792431831,-50.8833122253418,-0.0127038657665252,-8.292157173156738,-0.0990470647811889,-8.704270362854004,L,False,True,0,R,200,,0.358,LeftResponse,incorrect,True,6.0
14,32,408.8496666666667,1365,408.436,408.441,408.447,0.4735417544248125,46.10299071820344,0.3963328003883362,40.07198715209961,0.388659119606018,47.66386795043945,-0.2591565251350403,-22.79740333557129,-0.101572036743164,-6.740606784820557,L,False,True,0,L,400,,0.289,RightResponse,incorrect,True,4.0
15,34,421.0146666666667,8711,420.904,420.911,420.916,0.3901815727867042,44.664165918506136,-0.3861577808856964,-41.04100799560547,-0.2997802793979645,-27.1375789642334,-0.055891215801239,-17.621673583984375,-0.1345864534378051,-22.92417526245117,L,False,True,0,L,100,,0.3,LeftResponse,correct,True,12.0
16,36,433.2676666666667,8741,433.208,433.214,433.221,0.5094879443949876,54.3122113999729,-0.4649498760700226,-49.0587043762207,-0.7951992899179459,-74.41677856445312,-0.2083256542682647,-23.30364418029785,-0.1828198432922363,-22.16128158569336,L,False,True,0,L,50,,0.202,LeftResponse,correct,True,8.0
17,37,438.8006666666667,1449,438.737,438.743,438.75,0.3884114318099835,36.13285956224433,0.3734654188156128,35.383235931396484,0.4929105788469314,46.65785217285156,0.1067099869251251,7.321895599365234,-0.0330216884613037,1.4316827058792114,L,False,True,0,L,50,,0.226,LeftResponse,correct,True,7.0
18,38,445.4496666666667,1466,445.436,445.443,445.45,0.6179244240386556,59.00629600268905,0.6174018383026123,58.62221145629883,1.006034903228283,97.74179077148438,0.0254079492297023,-6.721554279327393,0.1981275677680969,13.277786254882812,L,False,True,0,L,0,,0.357,LeftResponse,correct,True,10.0
19,41,692.0016666666667,5981,691.785,691.792,691.803,0.6491925272156803,50.55804696670075,0.4369135499000549,41.77476119995117,0.2844825387001037,31.865434646606445,0.4801640212535858,28.477806091308597,0.3298203945159912,21.01181411743164,L,False,True,1,R,200,,0.261,LeftResponse,incorrect,True,9.0
20,43,704.3496666666666,9113,704.291,704.296,704.301,0.4144113692046192,41.98313837539749,-0.3404488414525985,-34.576080322265625,-0.363280177116394,-36.074363708496094,-0.2362866252660751,-23.813411712646484,-0.1142374277114868,-14.239213943481444,L,False,True,1,L,50,,0.297,LeftResponse,correct,True,9.0
21,44,707.4186666666667,9126,707.404,707.411,707.416,0.4778120051632396,48.0652289315644,-0.4014254659414291,-41.55176544189453,-0.1930704712867736,-20.738937377929688,-0.2591561451554298,-24.160236358642575,-0.1243722438812255,-18.182302474975582,L,False,True,1,L,0,,0.211,LeftResponse,correct,True,9.0
22,45,712.5186666666667,9135,712.31,712.317,712.325,0.6814533928768285,59.45424421763588,-0.6504331976175308,-57.213504791259766,-0.6046022772789001,-61.27057266235352,-0.2032618559896946,-16.168550491333008,-0.3224043846130371,-33.926265716552734,L,False,True,1,L,200,,0.345,LeftResponse,correct,True,12.0
23,46,716.6946666666666,9148,716.479,716.485,716.492,0.7395487351864044,75.54893072005848,-0.6275601834058762,-66.79812622070312,-0.3404359817504883,-30.209619522094727,-0.3912806510925293,-35.293785095214844,-0.3732490539550781,-36.2406005859375,L,False,True,1,L,200,,0.265,LeftResponse,correct,True,11.0
24,47,721.2326666666667,9157,721.018,721.027,721.031,0.5595603178088119,48.625122257891526,-0.3734683096408844,-33.02837371826172,-0.2159214615821838,-18.382511138916016,-0.4166883379220962,-35.68653869628906,-0.2488601207733154,-24.124914169311523,L,False,True,1,L,200,,0.239,LeftResponse,correct,True,10.0
25,48,724.1466666666666,9166,724.083,724.089,724.095,0.6921091533722697,70.5716043241834,-0.5487552881240845,-54.6907844543457,-0.2210129499435424,-24.29530334472656,-0.421761441975832,-44.60122680664063,-0.3985847234725952,-29.88833999633789,L,False,True,1,L,50,,0.397,LeftResponse,correct,True,8.0
26,49,727.6396666666667,9175,727.226,727.232,727.237,0.4956181527347154,56.275306984096005,-0.4497016966342926,-50.21331405639648,-0.2489733695983886,-25.75210189819336,-0.208340436220169,-25.407346725463867,-0.3198792934417724,-31.549959182739254,L,False,True,1,L,400,,0.378,LeftResponse,correct,True,7.0
27,50,734.7596666666667,9186,734.346,734.353,734.357,0.4147235075404794,41.97898762008413,-0.3836455792188644,-37.46405792236328,-0.3099343776702881,-27.85293960571289,-0.1575171649456024,-18.9388427734375,-0.1244150400161743,-14.0342378616333,L,False,True,1,R,400,,0.346,LeftResponse,incorrect,True,6.0
28,51,739.2886666666667,9199,739.279,739.284,739.29,0.3199270236817716,32.816450148518385,-0.3124857544898987,-32.72671127319336,-0.3658275604248047,-36.189979553222656,-0.0685999542474746,-2.4252359867095947,-0.2259492874145507,-23.333091735839844,L,False,True,1,R,0,,0.275,RightResponse,correct,True,8.0
29,52,743.9186666666667,9208,743.705,743.712,743.719,0.636953221433637,64.60656810437278,-0.4903537556529045,-52.26899719238281,-0.3988507986068725,-31.616241455078125,-0.4065250307321548,-37.9731559753418,-0.406259536743164,-34.60111618041992,L,False,True,1,L,200,,0.201,RightResponse,incorrect,True,9.0
30,53,747.1246666666667,1987,747.014,747.02,747.026,0.4547440162134634,44.790486266395774,0.4547369182109833,44.78095626831055,0.3607336282730102,34.15691375732422,-0.0025407671928405,0.9239132404327391,-0.1167982816696167,-12.603018760681152,L,False,True,1,R,100,,0.292,LeftResponse,incorrect,True,11.0
31,54,751.2506666666667,9229,750.834,750.841,750.846,0.5813196337021606,56.91380122945342,-0.4496821165084839,-45.15361785888672,-0.1803793907165527,-22.24136734008789,-0.3683999329805374,-34.64580154418945,-0.4062389135360718,-43.90032577514648,L,False,True,1,R,400,,0.36,LeftResponse,incorrect,True,9.0
32,55,754.4646666666666,13223,754.451,754.457,754.464,0.7829977636372302,73.09770820963992,-0.6021229773759842,-58.38795852661133,-0.4623593091964721,-43.87960052490234,-0.5005331337451935,-43.97864532470703,-0.5611557960510254,-49.09447860717773,L,False,True,1,R,0,,0.25,LeftResponse,incorrect,True,7.0
33,56,758.3946666666667,9253,758.279,758.286,758.292,0.6174353398932424,58.81793636064658,-0.477634534239769,-50.92802047729492,-0.1727567017078399,-20.4398193359375,-0.3912692815065384,-29.42594718933105,-0.2791918516159057,-35.5550651550293,L,False,True,1,R,100,,0.357,RightResponse,correct,True,14.0
34,57,761.8166666666667,13241,761.809,761.815,761.821,0.3430677321502143,27.068846340302223,0.109241247177124,8.683808326721191,0.309914231300354,29.16636085510254,-0.3252104222774505,-25.638134002685547,-0.299568772315979,-25.84866142272949,L,False,True,1,L,0,,0.248,RightResponse,incorrect,True,10.0
35,58,765.8136666666667,9272,765.752,765.758,765.763,0.4339671190032104,42.34128323193907,-0.3734544515609741,-38.10784530639648,-0.315013587474823,-33.834102630615234,-0.2210412472486496,-18.4547119140625,-0.1624573469161987,-20.375682830810547,L,False,True,1,R,50,,0.287,LeftResponse,incorrect,True,7.0
36,59,769.5896666666666,9281,769.576,769.584,769.59,0.6370351091194043,57.99530534686304,-0.5335323959589005,-48.52659225463867,-0.3201048970222473,-34.0201530456543,-0.3480760157108307,-31.758861541748047,-0.2538895606994629,-24.25915908813477,L,False,True,1,L,0,,0.321,LeftResponse,correct,True,13.0
37,60,772.8496666666666,2061,772.781,772.784,772.787,0.1580212250301179,19.022664622097214,0.1575098037719726,19.00738906860352,0.1752870082855224,21.77809715270996,0.0127031207084655,0.7621877193450928,-0.0380754470825195,-4.9382405281066895,L,False,True,1,R,50,,0.336,LeftResponse,incorrect,True,10.0
38,61,776.5636666666667,9296,776.15,776.157,776.163,0.4675171772696196,43.29096045189869,-0.3785378932952881,-35.544456481933594,-0.335350900888443,-34.1591911315918,-0.2743745148181915,-24.712322235107425,-0.2131682634353637,-19.60977554321289,L,False,True,1,L,400,,0.272,RightResponse,incorrect,True,12.0
39,62,780.8106666666666,9304,780.701,780.705,780.711,0.3477016394023811,36.351385395030505,-0.3226566314697265,-34.13633728027344,-0.320108562707901,-31.7564754486084,-0.1295728683471679,-12.495347023010254,-0.1700979471206665,-13.270638465881348,L,False,True,1,L,100,,0.239,LeftResponse,correct,True,13.0
40,64,788.2456666666667,9319,788.237,788.245,788.25,0.627957588678787,60.29300329998042,-0.5818075686693192,-58.52791595458984,-0.4598691686987877,-39.65884780883789,-0.2362851798534393,-14.482033729553224,-0.2056469917297363,-22.04258728027344,L,False,True,1,R,0,,0.365,RightResponse,correct,True,12.0
41,65,792.4176666666667,9326,792.305,792.311,792.318,0.5577750042922347,48.16977789730058,-0.4827087223529815,-43.42046737670898,-0.3556775450706482,-31.91826438903809,-0.2794731557369232,-20.856426239013672,-0.3045893907546997,-28.56676483154297,L,False,True,1,R,100,,0.307,LeftResponse,incorrect,True,12.0
42,66,798.3836666666667,9338,798.366,798.373,798.38,0.5555731658709288,54.010744574112806,-0.5335211604833603,-52.91342926025391,-0.3912175297737121,-29.976726531982425,-0.1549732685089111,-10.831875801086426,-0.104076862335205,-6.8770599365234375,L,False,True,1,L,0,,0.262,RightResponse,incorrect,True,11.0
43,67,802.1396666666667,2125,801.727,801.732,801.737,0.333389541566383,34.038349202747554,0.2819928824901581,28.66109275817871,0.3556529283523559,33.625667572021484,-0.1778443157672882,-18.361671447753903,-0.1294412612915039,-9.206161499023438,L,False,True,1,R,400,,0.314,LeftResponse,incorrect,True,14.0
44,69,813.1596666666667,9369,813.148,813.153,813.159,0.4519499405491629,50.1302553621922,-0.444578468799591,-49.56166458129883,-0.4166373014450073,-50.37101364135742,0.0812941193580627,7.528871536254883,0.1294677257537841,13.200745582580566,L,False,True,1,R,0,,0.216,LeftResponse,incorrect,True,14.0
45,70,818.3846666666667,2155,818.276,818.281,818.287,0.4437715739149286,43.44313137744579,0.3175773024559021,32.86638641357422,0.4293542504310608,44.11333847045898,0.3099642992019653,28.409616470336918,0.3301420211791992,25.788057327270508,L,False,True,1,L,100,,0.292,LeftResponse,correct,True,15.0
46,71,823.1396666666667,9388,822.727,822.734,822.741,0.5250381939416787,49.20164583625686,-0.5106806010007858,-48.365848541259766,-0.3963105678558349,-37.87598419189453,-0.1219443678855896,-9.030318260192873,-0.2259366512298584,-19.43230628967285,L,False,True,1,L,400,,0.273,LeftResponse,correct,True,17.0
47,73,831.1786666666667,9412,831.069,831.076,831.08,0.3113288288189448,29.222561981912094,-0.2769181728363037,-24.643346786499023,-0.3709464222192764,-30.0733585357666,-0.142274260520935,-15.705527305603027,-0.2233889102935791,-20.51570701599121,L,False,True,1,L,100,,0.225,LeftResponse,correct,True,14.0
48,74,834.5056666666667,13364,834.288,834.293,834.298,0.2884424440526827,27.184128449087,-0.0279465317726135,-4.988767147064209,-0.0508102774620056,-7.182615280151367,-0.2870854139328003,-26.72244453430176,-0.4367365837097168,-42.91257858276367,L,False,True,1,R,200,,0.337,LeftResponse,incorrect,True,12.0
49,75,837.9156666666667,2208,837.853,837.859,837.862,0.2968427183174966,29.51662108564244,0.1981538534164428,17.505752563476562,0.3480222821235657,30.783296585083008,-0.221021831035614,-23.76509094238281,-0.1904072761535644,-26.841453552246094,L,False,True,1,R,50,,0.342,RightResponse,correct,True,13.0
50,76,842.8366666666667,9439,842.625,842.631,842.637,0.4726376398454494,44.02570311646754,-0.4242456555366516,-42.262840270996094,-0.281961441040039,-32.79148483276367,-0.2083313763141632,-12.33348560333252,-0.1726387739181518,-15.047786712646484,L,False,True,1,R,200,,0.389,RightResponse,correct,True,15.0
51,77,846.3416666666667,9446,846.133,846.139,846.144,0.370091384487748,38.068265572070416,-0.3683781325817108,-37.69252014160156,-0.3429612219333648,-33.04922103881836,0.035569429397583,5.335425853729248,-0.0507820844650268,-5.262852668762207,L,False,True,1,R,200,,0.202,LeftResponse,incorrect,True,14.0
52,78,850.3516666666667,9458,850.239,850.245,850.253,0.6101641841188217,54.806506886166,-0.5436947643756866,-50.21210861206055,-0.3836285769939422,-35.93741226196289,-0.2769410312175751,-21.965822219848636,-0.2843765020370483,-30.26161003112793,L,False,True,1,L,100,,0.34,LeftResponse,correct,True,13.0
53,79,855.6266666666667,9470,855.509,855.517,855.523,0.6057074458676059,51.35192444629487,-0.5157682811841369,-46.19539642333984,-0.3531548827886581,-31.61995887756348,-0.3175918608903885,-22.427783966064453,-0.3631088733673095,-31.394365310668945,L,False,True,1,R,100,,0.307,LeftResponse,incorrect,True,12.0
54,82,925.0376666666667,9781,924.924,924.93,924.938,0.478322527073116,45.350026045172896,-0.4267987310886383,-35.49705123901367,-0.2896040678024292,-25.357540130615234,-0.2159520387649536,-28.22382354736328,-0.2030904293060302,-22.5013484954834,L,False,True,2,L,100,,0.326,RightResponse,incorrect,True,15.0
55,83,928.8306666666667,9799,928.422,928.426,928.43,0.4537832781241799,57.1191163871834,-0.4216691255569458,-53.528839111328125,-0.2896014451980591,-31.01571273803711,-0.1676735281944275,-19.931303024291992,-0.1294494867324829,-19.12955665588379,L,False,True,2,R,400,,0.38,LeftResponse,incorrect,True,16.0
56,84,932.9816666666667,9808,932.921,932.927,932.932,0.3526173300438999,36.868581488083,-0.3073968887329101,-32.6798210144043,-0.2718129754066467,-27.87426376342773,-0.1727603375911712,-17.068145751953125,-0.2791320085525512,-23.3691349029541,L,False,True,2,L,50,,0.288,LeftResponse,correct,True,15.0
57,85,936.1046666666667,2636,936.048,936.053,936.058,0.3710975323135447,42.477817358739244,0.3708800673484802,42.46875,0.3810281157493591,37.57106399536133,-0.0127025246620178,0.8776337504386902,-0.1395894289016723,-6.29876708984375,L,False,True,2,L,50,,0.341,LeftResponse,correct,True,14.0
58,87,947.9156666666667,9830,947.855,947.86,947.867,0.3083624674574804,28.18073103800407,-0.3022739887237549,-28.12601089477539,-0.3607388138771057,-33.18656539916992,-0.0609741508960723,1.7553099393844604,-0.2258100509643554,-30.40089225769043,L,False,True,2,R,50,,0.347,LeftResponse,incorrect,True,13.0
59,88,951.9706666666667,9838,951.957,951.965,951.972,0.5690094343387081,48.71384630047607,-0.4851945638656616,-42.81575012207031,-0.3124769032001495,-34.96536636352539,-0.2972506880760193,-23.23468017578125,-0.1142119169235229,-19.58808898925781,L,False,True,2,R,0,,0.362,RightResponse,correct,True,17.0
60,89,959.1736666666667,9845,959.067,959.07,959.075,0.2080136765012928,25.54876886349565,-0.1828966736793518,-22.561851501464844,-0.2438713312149047,-27.96662330627441,-0.0990883260965347,-11.987595558166504,-0.1675295829772949,-19.82181930541992,L,False,True,2,R,100,,0.248,RightResponse,correct,True,18.0
61,90,964.7446666666667,2677,964.533,964.538,964.543,0.222667265022365,23.045379696922147,0.2006467580795288,17.963558197021484,0.2616285681724548,24.661718368530277,-0.0965483784675598,-14.43606948852539,-0.0761455297470092,-9.89882755279541,L,False,True,2,L,200,,0.253,RightResponse,incorrect,True,17.0
62,91,969.9946666666667,9865,969.581,969.589,969.595,0.5216175844914953,44.09797922366926,-0.4903604788705706,-41.99164581298828,-0.4370015934109688,-38.71125793457031,-0.1778524816036224,-13.46601104736328,-0.1980253458023071,-17.563825607299805,L,False,True,2,L,400,,0.399,LeftResponse,correct,True,19.0
63,92,976.1936666666667,9883,976.182,976.189,976.195,0.4484315147526302,39.70973918076767,-0.4446077793836593,-38.66378402709961,-0.4725842177867889,-37.69600677490234,-0.0584358274936676,-9.054015159606934,-0.1903662681579589,-12.691256523132324,L,False,True,2,L,0,,0.327,RightResponse,incorrect,True,16.0
64,93,981.3766666666667,9894,980.967,980.973,980.98,0.6453490303828452,67.13756119129434,-0.5741165578365326,-59.74434661865234,-0.4064857363700866,-39.725128173828125,-0.294729620218277,-30.627849578857425,-0.383320689201355,-36.64607620239258,L,False,True,2,L,400,,0.374,LeftResponse,correct,True,18.0
65,94,985.5656666666666,2734,985.454,985.459,985.464,0.2583454813289538,25.84778977783195,0.2565402388572693,25.42323875427246,0.2895678281784057,31.61197662353516,0.0304875969886779,4.665529727935791,-0.1497676372528076,-16.24587631225586,L,False,True,2,L,100,,0.309,LeftResponse,correct,True,17.0
66,95,988.4426666666667,2742,988.429,988.435,988.44,0.3548329837311414,33.80756151859877,0.3099287748336792,31.339235305786133,0.3429615497589111,34.78129577636719,0.1727732643485069,12.68083381652832,0.3020979166030884,31.963529586791992,L,False,True,2,R,0,,0.209,LeftResponse,incorrect,True,19.0
67,96,991.8476666666667,13669,991.835,991.84,991.845,0.3071771159670258,30.290780363135767,0.1092233657836914,5.819131374359131,0.259112000465393,26.188364028930664,-0.2871028333902359,-29.726572036743164,-0.2791647911071777,-24.52416610717773,L,False,True,2,L,0,,0.308,RightResponse,incorrect,True,22.0
68,97,995.9276666666667,9929,995.816,995.824,995.831,0.7576855885648756,72.37993591640361,-0.6503622233867645,-61.87344741821289,-0.5462173521518707,-48.709922790527344,-0.388736966997385,-37.55704498291016,-0.2716370820999145,-33.926692962646484,L,False,True,2,R,100,,0.285,LeftResponse,incorrect,True,16.0
69,98,999.8706666666667,9939,999.66,999.667,999.672,0.5080766935290996,51.432062696463404,-0.419181615114212,-41.75688934326172,-0.358207106590271,-36.07540893554688,-0.2871039882302284,-30.026975631713867,-0.2310347557067871,-22.7342472076416,L,False,True,2,L,200,,0.322,LeftResponse,correct,True,20.0
70,99,1003.7466666666667,9947,1003.533,1003.538,1003.543,0.3259994636479615,35.1550911081578,-0.2464261054992675,-28.384057998657227,-0.2235670089721679,-26.21367454528809,-0.2134240493178367,-20.74188232421875,-0.246244192123413,-24.508703231811523,L,False,True,2,L,200,,0.257,LeftResponse,correct,True,19.0
71,100,1007.8356666666667,2785,1007.428,1007.433,1007.44,0.5687845502588458,55.81678421907561,0.5486746430397034,54.31379699707031,0.5918720960617065,54.959564208984375,-0.1499066399410367,-12.865646362304688,-0.2285132408142089,-24.55921745300293,L,False,True,2,L,400,,0.26,LeftResponse,correct,True,17.0
72,101,1012.7816666666666,9963,1012.568,1012.574,1012.58,0.4327876031318358,42.41679886334849,-0.3886467218399048,-37.594482421875,-0.292116105556488,-28.47278594970703,-0.1904175281524658,-19.642803192138672,0.1321116387844085,2.9332430362701416,L,False,True,2,R,200,,0.338,RightResponse,correct,True,18.0
73,102,1019.8546666666667,2806,1019.444,1019.448,1019.45,0.1763055464089891,20.81519967127899,0.1422541737556457,16.419218063354492,0.1879733800888061,20.413694381713867,-0.1041508316993713,-12.793819427490234,-0.2005218267440796,-24.34431266784668,L,False,True,2,L,400,,0.278,RightResponse,incorrect,True,16.0
74,103,1024.7556666666665,9990,1024.542,1024.548,1024.554,0.3765966335911593,35.14789904541868,-0.3454937934875488,-31.27011489868164,-0.327729731798172,-29.30874252319336,-0.1498634815216064,-16.048511505126953,-0.1319984197616577,-15.09148120880127,L,False,True,2,R,200,,0.372,LeftResponse,incorrect,True,17.0
75,104,1028.8356666666666,6526,1028.772,1028.776,1028.78,0.4731049041754966,53.8185833112863,0.4038630127906799,44.86636352539063,0.3226186037063598,33.62470245361328,0.2464202046394348,29.722875595092773,0.2335277795791626,21.41439247131348,L,False,True,2,R,50,,0.387,RightResponse,correct,True,16.0
76,105,1032.5446666666667,2829,1032.488,1032.493,1032.499,0.4404168056801351,49.737029890214686,0.4216974377632141,48.40507888793945,0.4064154624938965,38.86314392089844,0.1270363479852676,11.433305740356444,0.0177723169326782,-4.477689266204834,L,False,True,2,R,50,,0.374,RightResponse,correct,True,15.0
77,106,1036.0796666666665,10017,1036.067,1036.074,1036.08,0.5944312965288759,60.88988032671352,-0.5817877650260925,-60.673614501953125,-0.3633059859275818,-34.04438781738281,-0.121949017047882,-5.12738037109375,-0.0888248682022094,-7.936764717102051,L,False,True,2,R,0,,0.231,LeftResponse,incorrect,True,25.0
78,108,1049.8776666666665,10040,1049.816,1049.822,1049.828,0.4073123136731357,39.206951274141225,-0.4038044214248657,-39.20335388183594,-0.2006855010986328,-20.623109817504883,0.0533414483070373,-0.531105101108551,0.0761103630065918,-1.4300199747085571,L,False,True,2,L,50,,0.299,LeftResponse,correct,True,14.0
79,109,1055.7016666666666,2862,1055.592,1055.596,1055.599,0.2293025928804961,26.701909057200734,0.1447767615318298,16.763574600219727,0.281978964805603,31.89285087585449,-0.1778183579444885,-20.78399658203125,-0.2283475399017334,-28.83185577392578,L,False,True,2,R,100,,0.388,RightResponse,correct,True,19.0
80,110,1061.2146666666665,10056,1061.101,1061.11,1061.115,0.5189509241183868,51.13484778877875,-0.4827091097831726,-46.10063552856445,-0.312498927116394,-23.974763870239254,-0.190530776977539,-22.124738693237305,-0.2030092477798462,-18.248615264892575,L,False,True,2,L,100,,0.304,LeftResponse,correct,True,18.0
81,111,1067.6886666666664,10064,1067.479,1067.485,1067.491,0.4000262207530672,35.80347688477316,-0.3531058430671692,-33.57856369018555,-0.3785405158996582,-35.26756286621094,-0.1879820227622985,-12.424532890319824,0.0203020572662353,4.267976760864258,L,False,True,2,R,200,,0.323,LeftResponse,incorrect,True,20.0
82,112,1070.7526666666665,10072,1070.543,1070.549,1070.555,0.4771750664132159,46.5864389101881,-0.3886341452598572,-38.14747619628906,-0.505547434091568,-44.66610336303711,0.2768746018409729,26.740724563598636,0.3071043491363525,32.20766830444336,L,False,True,2,L,200,,0.2,LeftResponse,correct,True,23.0
83,113,1075.4196666666667,10083,1075.406,1075.412,1075.418,0.3810010314852616,35.70245819131493,-0.3657587170600891,-35.2134895324707,-0.2489669322967529,-29.816011428833008,-0.1066880822181701,-5.88860559463501,-0.1243902444839477,-11.262073516845703,L,False,True,2,L,0,,0.204,LeftResponse,correct,True,28.0
84,114,1079.1046666666666,10093,1078.694,1078.7,1078.707,0.4779008015592659,46.04397013068953,-0.4775699377059936,-45.42446899414063,-0.4293493926525116,-41.7804069519043,-0.017780065536499,7.527602672576904,0.0177643299102783,3.345157623291016,L,False,True,2,R,400,,0.219,LeftResponse,incorrect,True,19.0
85,115,1083.8796666666665,10103,1083.867,1083.874,1083.879,0.348728561657207,31.55458506975535,-0.2718093395233154,-22.701187133789062,-0.33789724111557,-31.50317001342773,-0.2184749245643615,-21.916841506958008,-0.1446646451950073,-17.05023193359375,L,False,True,2,R,0,,0.308,RightResponse,correct,True,27.0
86,116,1087.8016666666665,13832,1087.586,1087.589,1087.596,0.2845140133044934,29.40443272122893,0.111757755279541,13.507951736450195,0.162592351436615,19.03076934814453,-0.2616456151008606,-26.118114471435547,-0.2461147308349609,-23.895566940307617,L,False,True,2,R,200,,0.257,RightResponse,correct,True,22.0
87,117,1091.7696666666666,10119,1091.356,1091.36,1091.365,0.2901620832878421,29.828543903709743,-0.2717911601066589,-28.102752685546875,-0.2921552956104278,-31.66372299194336,-0.1016051173210144,-9.998866081237791,-0.1369931697845459,-13.307435989379885,L,False,True,2,R,400,,0.308,RightResponse,correct,True,22.0
88,118,1097.0736666666667,10127,1096.962,1096.97,1096.976,0.5430348092156344,52.5114088576462,-0.5156731009483337,-49.4667854309082,-0.3073956966400146,-31.779146194458008,-0.1702000498771667,-17.620590209960938,-0.0888097286224365,-7.9586501121521,L,False,True,2,R,100,,0.381,RightResponse,correct,True,17.0
89,119,1101.9196666666667,10137,1101.511,1101.517,1101.524,0.4373042253090659,42.22352768603,-0.3911265730857849,-38.81230163574219,-0.2667465806007385,-27.87559127807617,-0.1955888271331787,-16.626230239868164,-0.2208075523376464,-23.994659423828125,L,False,True,2,R,400,,0.368,RightResponse,correct,True,21.0
90,120,1130.4466666666665,10266,1130.388,1130.394,1130.4,0.6478933870995581,64.88075826162319,-0.5183116309344769,-53.517372131347656,-0.4217647551558912,-37.7187728881836,-0.388740137219429,-36.67974472045898,-0.3908252716064453,-37.51608657836914,L,False,True,3,L,50,,0.277,LeftResponse,correct,True,13.0
91,121,1133.8236666666667,10284,1133.703,1133.706,1133.712,0.2808254962311318,30.143821647415653,-0.2464329600334167,-27.48402404785156,-0.0431869029998779,-4.87294864654541,-0.1346616335213184,-12.380565643310549,-0.2157272100448608,-27.31786155700684,L,False,True,3,L,100,,0.396,LeftResponse,correct,True,16.0
92,122,1138.2196666666666,10298,1138.206,1138.213,1138.219,0.469783546986723,44.57734538179729,-0.3658338487148285,-34.59749984741211,-0.2286180257797241,-29.696849822998047,-0.2947238981723785,-28.109655380249023,-0.2513278722763061,-22.295068740844727,L,False,True,3,R,0,,0.312,LeftResponse,incorrect,True,26.0
93,125,1148.7946666666667,10333,1148.782,1148.788,1148.793,0.4502039215980291,45.56688124362011,-0.3607647120952606,-36.238243103027344,-0.264213502407074,-26.12108039855957,-0.2693183869123459,-27.624814987182617,-0.2183300256729126,-22.52550506591797,L,False,True,3,R,0,,0.304,RightResponse,correct,True,29.0
94,126,1155.1436666666666,10344,1154.932,1154.938,1154.941,0.1943082429024734,23.626850826103336,-0.1752896904945373,-18.84544563293457,-0.1651274561882019,-18.060211181640625,-0.0838404297828674,-14.250517845153809,-0.1091847419738769,-8.725800514221191,L,False,True,3,R,200,,0.392,LeftResponse,incorrect,True,21.0
95,127,1158.3496666666665,3166,1158.292,1158.297,1158.3,0.2999671050812998,33.554783536583265,0.2337351739406585,25.082544326782227,0.3175213932991028,28.218408584594727,-0.1880109906196594,-22.288774490356445,-0.1903672218322754,-24.6439151763916,L,False,True,3,R,50,,0.332,RightResponse,correct,True,12.0
96,128,1163.0166666666667,10371,1162.955,1162.961,1162.969,0.5734598940214377,52.47502631161332,-0.5716333389282227,-52.47477722167969,-0.4090295732021332,-39.794281005859375,-0.0457337498664855,0.1616846919059753,-0.2590302228927612,-29.57389259338379,L,False,True,3,L,50,,0.294,RightResponse,incorrect,True,11.0
97,129,1165.9526666666666,14030,1165.943,1165.948,1165.953,0.3795988298792293,38.21757582016762,0.0914685481693595,9.285444259643556,0.2337398529052734,25.8913516998291,-0.3684138655662536,-37.072410583496094,-0.3758764863014221,-38.85704803466797,L,False,True,3,L,0,,0.379,LeftResponse,correct,True,28.0
98,130,1169.6576666666665,10388,1169.645,1169.65,1169.653,0.217745919251188,24.012966631029645,-0.2057976871728897,-20.672203063964844,-0.1829286515712738,-19.032041549682617,-0.0711378753185272,-12.218125343322754,-0.2843478918075561,-25.9660758972168,L,False,True,3,L,0,,0.215,LeftResponse,correct,True,27.0
99,131,1172.6176666666665,10396,1172.606,1172.611,1172.617,0.3108939077201317,30.274351607498723,-0.2870505452156067,-29.213275909423828,-0.2261164486408233,-26.93089866638184,0.1194027066230773,7.944864749908447,0.0304579734802246,0.1153806298971176,L,False,True,3,L,0,,0.224,LeftResponse,correct,True,26.0
100,132,1177.9886666666666,10406,1177.77,1177.777,1177.784,0.4715226938414536,41.42704960442968,-0.4598724730312824,-39.7511100769043,-0.2921877577900886,-27.116914749145508,-0.1041679382324218,-11.664033889770508,-0.0355483293533325,-4.66278076171875,L,False,True,3,R,200,,0.394,LeftResponse,incorrect,True,24.0
101,134,1185.0536666666665,10428,1184.991,1184.997,1185.004,0.5663949001015377,58.10068666307423,-0.5181987285614014,-54.79915237426758,-0.2489769756793975,-25.63678932189941,-0.2286334633827209,-19.30654525756836,-0.0685200691223144,-7.267271518707275,L,False,True,3,R,50,,0.37,RightResponse,correct,True,14.0
102,135,1190.1036666666666,10437,1190.091,1190.098,1190.104,0.4170506603616313,40.016344185648805,-0.3683362603187561,-32.95429229736328,-0.3785581290721893,-38.47978591918945,0.1956007480621338,22.700714111328125,0.3045728206634521,32.695350646972656,L,False,True,3,R,0,,0.375,RightResponse,correct,True,25.0
103,136,1198.0646666666667,10445,1197.653,1197.657,1197.661,0.2709401702609725,30.48994380770932,-0.2108218073844909,-24.060945510864254,-0.2032508850097656,-21.964977264404297,-0.1701844334602356,-18.72718811035156,-0.2081393003463745,-23.02914810180664,L,False,True,3,L,400,,0.363,RightResponse,incorrect,True,20.0
104,138,1205.8456666666666,14093,1205.834,1205.839,1205.843,0.2781294421954567,29.2869014987548,0.0457179546356201,5.333757400512695,0.2006993889808654,21.825136184692383,-0.2743462324142456,-28.79711151123047,-0.2259389162063598,-19.916889190673828,L,False,True,3,L,0,,0.357,RightResponse,incorrect,True,24.0
105,139,1209.7096666666666,10479,1209.3,1209.307,1209.313,0.7935069422603104,78.5435461949006,-0.5919331610202789,-63.48954772949219,-0.4141474366188049,-40.83738708496094,-0.5284585133194923,-46.24030685424805,-0.5102988481521606,-43.87541198730469,L,False,True,3,L,400,,0.203,LeftResponse,correct,True,26.0
106,140,1214.8596666666665,10490,1214.847,1214.853,1214.858,0.37000470373486,36.134818747756256,-0.3124697208404541,-32.0091667175293,-0.355698674917221,-32.821380615234375,-0.1981568932533264,-16.767181396484375,-0.3045909404754638,-29.92905044555664,L,False,True,3,R,0,,0.29,RightResponse,correct,True,27.0
107,141,1220.0966666666666,10500,1219.685,1219.692,1219.701,0.9628234673421686,83.99223294789914,-0.7875637710094452,-66.2381362915039,-0.6351922154426575,-53.3101806640625,-0.5538703240454197,-51.64498519897461,-0.5052311420440674,-47.383544921875,L,False,True,3,R,400,,0.35,LeftResponse,incorrect,True,25.0
108,142,1227.1336666666666,10516,1226.923,1226.928,1226.934,0.39900522726362,44.91324222828747,-0.3988029956817627,-44.22151565551758,-0.4115781188011169,-45.40781021118164,-0.0127020478248596,-7.852189540863037,-0.0101516246795654,0.5306482911109924,L,False,True,3,L,200,,0.248,RightResponse,incorrect,True,27.0
109,143,1230.4436666666666,14140,1230.232,1230.236,1230.245,0.4998547003498921,42.57265205226257,0.1701821088790893,16.787424087524414,0.3302451372146606,29.676454544067383,-0.4699923098087311,-39.12305068969727,-0.3198467493057251,-24.94502067565918,L,False,True,3,R,200,,0.24,LeftResponse,incorrect,True,30.0
110,144,1233.8776666666665,10532,1233.764,1233.771,1233.777,0.8243002556943582,82.83366886452933,-0.6807076334953308,-70.72810363769531,-0.4344537258148193,-40.72002410888672,-0.4648742079734802,-43.11556625366211,-0.2792246341705322,-24.41419982910156,L,False,True,3,L,100,,0.245,LeftResponse,correct,True,21.0
111,145,1238.1246666666666,10541,1238.064,1238.069,1238.075,0.3337884252485422,33.48154465661399,-0.3276899456977844,-33.27699279785156,-0.2947238981723785,-27.971031188964844,-0.0635138750076294,-3.695346117019653,-0.1370923519134521,-13.52450942993164,L,False,True,3,L,50,,0.32,LeftResponse,correct,True,13.0
112,146,1242.1926666666666,10549,1242.078,1242.085,1242.091,0.6046516757755404,57.66038968208039,-0.5487017631530762,-51.52229690551758,-0.223581314086914,-17.068988800048828,-0.2540276050567627,-25.88770866394043,-0.1243549585342407,-12.343453407287598,L,False,True,3,R,100,,0.265,LeftResponse,incorrect,True,20.0
113,147,1247.9086666666665,10561,1247.795,1247.802,1247.81,0.5603248389282326,52.85295225320551,-0.4927862882614136,-47.26949691772461,-0.4141471982002258,-42.31560134887695,0.2666938304901123,23.643798828125,0.0812175273895263,13.289921760559082,L,False,True,3,L,100,,0.271,LeftResponse,correct,True,23.0
114,148,1251.7346666666665,14170,1251.329,1251.331,1251.336,0.2446354421634365,31.38710465637017,0.0634975433349609,14.338902473449709,0.1346508860588073,23.88154983520508,-0.2362510561943054,-27.92035484313965,-0.4111571311950683,-46.92817306518555,L,False,True,3,R,400,,0.306,RightResponse,correct,True,28.0
115,149,1256.2066666666665,10576,1255.795,1255.8,1255.806,0.4755566470728309,47.26711142329433,-0.3937216401100158,-38.42526626586914,-0.2769295275211334,-28.201147079467773,-0.266715943813324,-27.52596473693848,-0.2157127857208252,-19.95661735534668,L,False,True,3,R,400,,0.222,RightResponse,correct,True,27.0
116,150,1260.0486666666666,14181,1259.827,1259.83,1259.835,0.27808663038486,31.701619059107696,0.0253971815109252,3.7403249740600586,0.1930708885192871,21.270214080810547,-0.2769244611263275,-31.480194091796875,-0.2919114828109741,-29.92865753173828,L,False,True,3,L,200,,0.393,LeftResponse,correct,True,33.0
117,151,1264.4786666666666,10590,1264.362,1264.369,1264.378,0.7953483246371867,68.10512114432788,-0.5944087505340576,-47.45534896850586,-0.3760240077972412,-25.24517059326172,-0.5284479111433029,-48.8497428894043,-0.3630861043930053,-36.931732177734375,L,False,True,3,R,100,,0.374,LeftResponse,incorrect,True,22.0
118,152,1269.5036666666665,3410,1269.294,1269.297,1269.3,0.2043475364060097,24.953829152313343,0.1168463826179504,14.802080154418944,0.1854513883590698,21.339635848999023,-0.16764497756958,-20.089599609375,-0.1980137825012207,-24.463098526000977,L,False,True,3,L,200,,0.301,LeftResponse,correct,True,32.0
119,153,1273.1346666666666,10608,1273.017,1273.02,1273.022,0.1804226945957168,23.314717262938565,-0.1041393876075744,-13.43882656097412,-0.0685955286026001,-9.515612602233888,-0.1473340988159179,-19.051876068115234,-0.200508713722229,-27.5961856842041,L,False,True,3,R,100,,0.238,RightResponse,correct,True,25.0
120,154,1276.0196666666666,3424,1275.809,1275.813,1275.815,0.1394946688053853,17.04168775802193,0.1371618509292602,16.741012573242188,0.2667523920536041,32.70302963256836,-0.0254045128822326,-3.1871020793914795,0.0380632877349853,2.491405248641968,L,False,True,3,L,200,,0.26,LeftResponse,correct,True,31.0
121,155,1279.6296666666665,10621,1279.216,1279.223,1279.229,0.485554807003934,51.41131330535244,-0.4725128412246704,-50.00000381469727,-0.398874431848526,-38.3631706237793,-0.1117814183235168,-11.96339225769043,-0.1776595115661621,-17.535802841186523,L,False,True,3,L,400,,0.355,LeftResponse,correct,True,26.0
122,156,1283.4346666666665,3441,1283.021,1283.027,1283.033,0.3628692462181065,37.62966145929767,0.3327236771583557,34.19581604003906,0.3810694813728332,35.266204833984375,-0.1448069214820861,-15.704699516296388,-0.0482285022735595,-6.045766353607178,L,False,True,3,L,400,,0.392,LeftResponse,correct,True,25.0
123,157,1287.4646666666665,10648,1287.404,1287.407,1287.412,0.2433576873397004,28.718490709687018,-0.1955980062484741,-23.0467586517334,-0.2439047396183014,-30.072301864624023,-0.1447908282279968,-17.134719848632812,-0.2690191268920898,-26.46282958984375,L,False,True,3,L,50,,0.275,LeftResponse,correct,True,12.0
124,158,1292.3816666666667,10656,1292.323,1292.329,1292.336,0.4633355634486755,42.44860294659695,-0.4267899692058563,-39.353614807128906,-0.3557049706578254,-28.456544876098636,-0.1803612112998962,-15.91153335571289,-0.1217930316925048,-12.847981452941896,L,False,True,3,R,50,,0.239,LeftResponse,incorrect,True,11.0
125,159,1299.6676666666665,10674,1299.454,1299.459,1299.466,0.4470207735300577,48.37732007191672,-0.4470135569572449,-47.79532241821289,-0.2870889604091644,-30.140758514404297,-0.0025400519371032,-7.4814605712890625,0.032987356185913,-2.998951911926269,L,False,True,3,R,200,,0.339,RightResponse,correct,True,30.0
126,161,1328.1156666666666,14326,1327.997,1328.0,1328.004,0.2218490214710087,27.591103293020925,0.1092288494110107,13.53238296508789,0.1803891062736511,23.51294708251953,-0.1930959522724151,-24.04461669921875,-0.3276337385177612,-36.15711212158203,L,False,True,4,L,100,,0.372,RightResponse,incorrect,True,24.0
127,163,1334.7236666666665,10832,1334.66,1334.666,1334.671,0.3744826350888476,35.692706475680026,-0.3022965788841247,-29.929723739624023,-0.3124703764915466,-32.14776611328125,-0.2210294604301452,-19.446874618530277,-0.3224265575408935,-31.48032760620117,L,False,True,4,L,50,,0.392,LeftResponse,correct,True,14.0
128,164,1339.3946666666666,10838,1339.282,1339.289,1339.295,0.385461687104021,36.30007866880122,-0.3810062408447265,-36.29996109008789,-0.3785269558429718,-32.14823913574219,-0.058437630534172,-0.092391662299633,-0.0583735704421997,2.399494409561157,L,False,True,4,R,100,,0.391,RightResponse,correct,True,27.0
129,165,1344.1076666666665,3678,1343.995,1344.002,1344.008,0.4535912730646623,41.77896264132325,0.4521943628787994,41.77832412719727,0.4115656912326813,45.49813461303711,-0.0355710722506046,-0.2309816181659698,-0.0228554010391235,5.956351280212402,L,False,True,4,L,100,,0.265,LeftResponse,correct,True,26.0
130,166,1349.3946666666666,10860,1349.382,1349.388,1349.393,0.3468452875226041,32.348811735966585,-0.2946808338165283,-27.06642341613769,-0.2896283268928528,-27.392303466796875,-0.1829340308904647,-17.71593475341797,-0.2563486099243164,-25.081287384033203,L,False,True,4,R,0,,0.243,RightResponse,correct,True,25.0
131,167,1353.6546666666666,10874,1353.439,1353.444,1353.45,0.2785131338702556,24.4948228136904,-0.2692748308181762,-24.24857521057129,-0.1880013942718505,-16.86003303527832,0.0711381137371063,3.464526653289795,0.0659823417663574,3.2531232833862305,L,False,True,4,R,200,,0.271,RightResponse,correct,True,29.0
132,168,1357.2926666666665,10879,1357.232,1357.24,1357.247,0.779887106336162,75.1562057197775,-0.729064553976059,-69.35130310058594,-0.5690995305776596,-48.618778228759766,-0.2769273817539215,-28.96294212341309,-0.1903672218322754,-21.09064102172852,L,False,True,4,R,50,,0.381,RightResponse,correct,True,13.0
133,169,1363.5046666666665,14383,1363.293,1363.296,1363.299,0.257878868578062,31.10418618535057,0.1447904109954834,18.17384910583496,0.264213502407074,33.18837356567383,-0.2133945822715759,-25.242456436157227,-0.0659730434417724,-8.073648452758789,L,False,True,4,L,200,,0.365,RightResponse,incorrect,True,28.0
134,170,1368.0596666666665,10902,1367.842,1367.848,1367.855,0.5316295463153708,45.16297328365811,-0.4165966510772705,-39.188621520996094,-0.2896396517753601,-25.98432159423828,-0.330268383026123,-22.44874382019043,-0.3045114278793335,-32.01799011230469,L,False,True,4,L,200,,0.362,LeftResponse,correct,True,31.0
135,171,1372.2976666666666,10910,1372.089,1372.094,1372.101,0.4884694367680352,47.016087058086896,-0.4140717983245849,-40.32148361206055,-0.292178139090538,-26.885040283203125,-0.2591272592544555,-24.18037223815918,-0.1116933822631836,-10.246258735656738,L,False,True,4,R,200,,0.314,RightResponse,correct,True,30.0
136,172,1376.8986666666665,10922,1376.886,1376.889,1376.894,0.2346203383400849,26.35120232978384,-0.22100830078125,-24.063663482666016,-0.2515286803245544,-29.33341217041016,0.0787529945373535,10.73899269104004,0.1700609922409057,18.598575592041016,L,False,True,4,R,0,,0.348,LeftResponse,incorrect,True,24.0
137,173,1380.2206666666666,14420,1380.011,1380.015,1380.022,0.3251474432062143,27.92413330877097,0.0406402945518493,2.840215921401977,0.3429713845252991,35.03649139404297,-0.3225976228713989,-27.779315948486328,-0.3781458139419555,-31.051671981811523,L,False,True,4,L,200,,0.394,LeftResponse,correct,True,29.0
138,174,1383.6516666666666,10944,1383.636,1383.641,1383.645,0.2755005334265213,29.84740888535402,-0.2311602234840393,-24.80198097229004,-0.1829153299331665,-21.43245887756348,-0.1498849391937255,-16.605106353759766,-0.0634533166885376,-6.991290092468262,L,False,True,4,R,0,,0.222,RightResponse,correct,True,27.0
139,175,1387.2656666666664,10951,1387.149,1387.155,1387.162,0.4234103349690159,37.91585517971829,-0.4039130210876465,-37.31978225708008,-0.2362660765647888,-23.99610137939453,-0.1270062327384948,-6.696710109710693,-0.0964585542678833,-8.330489158630371,L,False,True,4,L,100,,0.375,LeftResponse,correct,True,25.0
140,176,1393.9766666666665,3784,1393.867,1393.872,1393.88,0.3616881171594777,30.57975735452061,0.3530104160308838,27.982681274414062,0.5563411116600037,49.74586868286133,-0.0787523984909057,-12.33252239227295,-0.060902714729309,-6.666976451873779,L,False,True,4,R,100,,0.364,RightResponse,correct,True,24.0
141,177,1397.9146666666666,10968,1397.901,1397.908,1397.914,0.4731315964381599,44.39739020221538,-0.4394575357437134,-42.62982177734375,-0.2134099006652832,-22.51884651184082,-0.1753014028072357,-12.40268325805664,-0.0355255603790283,-2.6066222190856934,L,False,True,4,L,0,,0.286,LeftResponse,correct,True,26.0
142,178,1401.6496666666665,3802,1401.588,1401.594,1401.598,0.2963189364683705,29.355823982506877,0.2870150804519653,28.14710807800293,0.2972476482391357,28.546600341796875,0.0736699104309082,8.33694839477539,-0.0507557392120361,0.1384253203868866,L,False,True,4,R,50,,0.306,LeftResponse,incorrect,True,12.0
143,179,1405.8756666666666,10990,1405.464,1405.471,1405.477,0.3955431869705721,40.76935275944023,-0.3886212110519409,-38.747554779052734,-0.2997954487800598,-31.04209899902344,-0.073674738407135,-12.679397583007812,-0.0989670753479003,-9.228109359741213,L,False,True,4,R,400,,0.297,RightResponse,correct,True,24.0
144,180,1410.6466666666665,14467,1410.634,1410.64,1410.648,0.5722272313024791,49.78227965830799,0.3073573112487793,32.14430618286133,0.3277354836463928,33.674102783203125,-0.4826753437519073,-38.013404846191406,-0.39345383644104,-34.59145736694336,L,False,True,4,L,0,,0.289,RightResponse,incorrect,True,25.0
145,181,1414.0606666666665,3835,1414.048,1414.053,1414.057,0.3295361805839398,33.83470205380938,0.2159002423286438,22.02863311767578,0.2667562961578369,28.753944396972656,-0.2489601969718933,-25.681245803833008,-0.294458270072937,-27.78425407409668,L,False,True,4,L,0,,0.306,LeftResponse,correct,True,28.0
146,182,1416.9586666666667,14477,1416.899,1416.903,1416.912,0.4097796508299143,32.635104269102825,0.0253999233245849,5.218475818634033,0.1803828477859497,24.25111961364746,-0.4089916944503784,-32.21517562866211,-0.6141031980514526,-46.8009033203125,L,False,True,4,L,50,,0.312,LeftResponse,correct,True,15.0
147,183,1424.1236666666666,3846,1423.91,1423.914,1423.918,0.1706366721792512,17.82266168044498,0.1701633930206298,17.616703033447266,0.2337295413017273,26.65257453918457,-0.0127001404762268,-2.701674222946167,-0.045670747756958,-5.443576812744141,L,False,True,4,R,200,,0.356,RightResponse,correct,True,28.0
148,184,1430.3686666666665,3865,1430.309,1430.313,1430.317,0.2363416851519655,26.070136601328898,0.2082445621490478,23.618074417114254,0.2769184112548828,33.16551971435547,-0.1117658019065857,-11.03805160522461,-0.0786633491516113,-6.666759014129639,L,False,True,4,R,50,,0.379,LeftResponse,incorrect,True,14.0
149,185,1437.3596666666665,11047,1436.949,1436.955,1436.961,0.319886019732927,31.78615413386597,-0.2997270822525024,-28.056175231933597,-0.2438933849334716,-24.29692840576172,0.11176198720932,14.940235137939451,0.1471612453460693,14.1170654296875,L,False,True,4,R,400,,0.309,RightResponse,correct,True,23.0
150,186,1441.2806666666665,11058,1441.17,1441.176,1441.184,0.4572462439537048,40.67775007570989,-0.4572462439537048,-40.50530624389648,-0.4700187891721725,-39.42617034912109,0.0,3.7415928840637207,-0.1472395658493042,-11.14660930633545,L,False,True,4,R,100,,0.369,RightResponse,correct,True,23.0
151,187,1444.6946666666665,11068,1444.635,1444.643,1444.651,0.6795754265130926,60.5899663339395,-0.6655853390693665,-59.307220458984375,-0.5996098741889,-52.91684341430664,0.1371820569038391,12.401516914367676,0.0609067678451538,7.382928848266602,L,False,True,4,R,50,,0.358,RightResponse,correct,True,17.0
152,188,1449.4786666666666,3905,1449.071,1449.076,1449.081,0.2980874527666398,31.90044766621632,0.2972092628479004,31.360742568969727,0.3455317765474319,35.707820892333984,-0.0228644609451293,-5.843148708343506,-0.0888018608093261,-8.234217643737793,L,False,True,4,L,400,,0.339,RightResponse,incorrect,True,22.0
153,189,1452.6346666666666,11089,1452.522,1452.528,1452.534,0.5013750332651474,48.17683669048262,-0.4394644498825073,-41.45230865478516,-0.3760218173265457,-31.689476013183597,-0.2413460612297058,-24.550228118896484,-0.1903563737869262,-14.836420059204102,L,False,True,4,L,100,,0.39,LeftResponse,correct,True,22.0
154,190,1456.5936666666666,11094,1456.181,1456.188,1456.194,0.4021284772419623,37.40822419418784,-0.3962364792823791,-35.490631103515625,-0.2235811799764633,-21.08783531188965,0.068585455417633,11.823296546936035,0.0811889171600341,0.3459967076778412,L,False,True,4,R,400,,0.357,LeftResponse,incorrect,True,25.0
155,191,1460.4326666666666,11107,1460.369,1460.376,1460.382,0.7444948755031532,73.69470686490287,-0.6554246842861176,-66.72084045410156,-0.4979889094829559,-49.68344497680664,-0.3531162738800049,-31.29279899597168,-0.286839485168457,-28.49811553955078,L,False,True,4,L,50,,0.208,RightResponse,incorrect,True,16.0
156,192,1465.5906666666665,11118,1465.179,1465.185,1465.19,0.2954560886008835,29.599362043985742,-0.2896203994750976,-29.331581115722656,-0.2667745798826217,-29.287574768066406,-0.0584322214126586,-3.972478151321411,-0.0659902095794677,-13.544541358947754,L,False,True,4,L,400,,0.324,LeftResponse,correct,True,28.0
157,193,1470.6286666666665,11130,1470.518,1470.524,1470.53,0.3404743715960089,33.288063916234314,-0.34038907289505,-33.277095794677734,-0.3912601917982101,-40.188663482666016,-0.0076208114624023,0.854455828666687,-0.0710567235946655,-12.412199020385742,L,False,True,4,R,100,,0.274,LeftResponse,incorrect,True,21.0
158,194,1477.6686666666665,3961,1477.461,1477.466,1477.471,0.3345780859847752,40.129493966757046,0.3225467205047607,39.735130310058594,0.4318796098232269,45.61262893676758,-0.0889163017272949,-5.612103462219238,-0.0710434913635253,-3.43687105178833,L,False,True,4,R,200,,0.226,RightResponse,correct,True,27.0
159,196,1488.6936666666666,11171,1488.483,1488.49,1488.496,0.3859272977661516,34.56038432716872,-0.3607286810874939,-32.07776641845703,-0.3633263371884823,-29.911619186401367,-0.137166678905487,-12.862234115600586,-0.1776297092437744,-20.94682884216309,L,False,True,4,L,200,,0.335,LeftResponse,correct,True,26.0
160,197,1492.7326666666665,3999,1492.32,1492.325,1492.331,0.3487219753694141,36.58307547716056,0.342890977859497,35.397705078125,0.3785474598407745,38.47829818725586,-0.0635042786598205,-9.237092971801758,-0.149711012840271,-16.078025817871094,L,False,True,4,R,400,,0.357,LeftResponse,incorrect,True,27.0
161,200,1524.0946666666666,11302,1524.083,1524.091,1524.098,0.6280409505118987,61.5366169942284,-0.6224190294742584,-61.480255126953125,-0.6071456670761108,-61.246368408203125,-0.0838450193405151,-2.6331465244293213,-0.0279463529586792,1.4088666439056396,L,False,True,5,R,0,,0.344,LeftResponse,incorrect,True,27.0
162,201,1528.4206666666666,11324,1528.209,1528.215,1528.221,0.497741213463296,51.42472057829164,-0.4648804068565368,-48.58977127075195,-0.4929028069600463,-42.84634399414063,-0.1778553426265716,-16.83852767944336,-0.1218430995941162,-7.107633113861084,L,False,True,5,L,200,,0.295,LeftResponse,correct,True,25.0
163,203,1538.6376666666665,11343,1538.222,1538.235,1538.241,0.4878623670411797,34.7340916327544,-0.4876969456672668,-33.20700454711914,-0.2896232008934021,-25.174928665161133,-0.0127034783363342,10.185871124267578,0.0710550546646118,4.406435489654541,L,False,True,5,L,400,,0.328,LeftResponse,correct,True,30.0
164,204,1544.1126666666667,11363,1543.698,1543.704,1543.71,0.3932856320019824,37.066807603596935,-0.3454334735870361,-33.36585235595703,-0.3251876831054687,-31.89519691467285,0.1880141049623489,16.145219802856445,0.1141715049743652,2.744755744934082,L,False,True,5,L,400,,0.265,LeftResponse,correct,True,29.0
165,206,1552.6266666666666,11388,1552.517,1552.521,1552.527,0.3161414566120625,34.59796012256594,-0.3048208951950073,-33.32231140136719,-0.340421974658966,-36.0745849609375,-0.0838429629802703,-9.30819034576416,-0.0862517356872558,-8.694437026977539,L,False,True,5,R,100,,0.202,LeftResponse,incorrect,True,24.0
166,208,1560.7576666666666,11408,1560.543,1560.547,1560.553,0.2745296783124454,27.654314508175855,-0.2540031671524048,-26.162281036376957,-0.2514842748641968,-27.226640701293945,-0.1041582226753234,-8.96081256866455,-0.2206921577453613,-20.639375686645508,L,False,True,5,L,200,,0.356,LeftResponse,correct,True,24.0
167,209,1567.6476666666665,11418,1567.235,1567.241,1567.246,0.4447548131474294,47.78916534766811,-0.3632640838623047,-37.78166961669922,-0.360761284828186,-30.83338165283203,-0.2566048502922058,-29.26345443725586,-0.1294374465942382,-14.259111404418944,L,False,True,5,R,400,,0.392,RightResponse,correct,True,28.0
168,210,1571.1616666666666,11432,1571.149,1571.155,1571.161,0.3825401562001054,35.52845753251502,-0.3708123564720154,-34.28773498535156,-0.3378720879554748,-32.05464553833008,-0.0939955711364746,-9.307122230529783,-0.1421183347702026,-19.402856826782227,L,False,True,5,L,0,,0.375,RightResponse,incorrect,True,30.0
169,212,1581.0666666666666,4287,1581.003,1581.009,1581.015,0.3620531711500996,37.4732820480486,0.3581002950668335,37.26456069946289,0.302297294139862,31.200008392333984,0.053354263305664,3.949605464935303,0.1243274211883544,14.716381072998049,L,False,True,5,R,50,,0.269,LeftResponse,incorrect,True,19.0
170,213,1584.2726666666665,4293,1584.261,1584.267,1584.274,0.5419562390089885,52.76138550895917,0.4800604581832886,48.283451080322266,0.5207406282424927,48.40284729003906,0.2515124678611755,21.271392822265625,0.1674642562866211,20.829328536987305,L,False,True,5,L,0,,0.394,RightResponse,incorrect,True,33.0
171,214,1588.1446666666666,4305,1588.085,1588.091,1588.097,0.4246885066580259,43.3488789225022,0.421638011932373,42.85680770874024,0.5081081986427307,50.97216796875,-0.0508105754852294,-6.513012886047363,-0.1293921470642089,-12.546920776367188,L,False,True,5,L,50,,0.283,LeftResponse,correct,True,22.0
172,216,1599.9436666666666,11493,1599.53,1599.537,1599.544,0.6900454193759868,65.43268487314988,-0.6832597851753235,-65.41751861572266,-0.4394824504852295,-38.15206909179688,-0.0965336561203002,-1.408725619316101,-0.149772047996521,-5.930763244628906,L,False,True,5,R,400,,0.374,RightResponse,correct,True,27.0
173,217,1603.2036666666665,4330,1603.142,1603.148,1603.155,0.4123801658442437,40.5922228518492,0.4114320874214172,40.58932495117188,0.4547207355499267,42.97844314575195,0.0279470682144165,0.4850320219993591,-0.0405976772308349,-6.943129539489746,L,False,True,5,L,50,,0.324,LeftResponse,correct,True,21.0
174,219,1614.7946666666667,4349,1614.785,1614.787,1614.794,0.1823043944855879,18.23335837628112,0.1726870536804199,16.553482055664062,0.2946572303771972,30.967609405517575,0.0584300756454467,7.644448280334473,0.065986156463623,10.244322776794434,L,False,True,5,R,0,,0.389,LeftResponse,incorrect,True,36.0
175,220,1619.1326666666666,4360,1619.018,1619.023,1619.029,0.3799006366553082,42.2413503425648,0.3784624338150024,42.23361587524414,0.35817950963974,35.14807891845703,-0.0330254435539245,-0.8083123564720154,-0.1801737546920776,-11.419388771057127,L,False,True,5,R,100,,0.213,LeftResponse,incorrect,True,27.0
176,221,1622.9376666666665,4368,1622.823,1622.829,1622.834,0.3125682390469692,29.79697853653629,0.2844475507736206,28.236726760864254,0.3200455904006958,34.63699722290039,-0.1295704245567321,-9.515628814697266,-0.243589162826538,-19.67548370361328,L,False,True,5,L,100,,0.383,LeftResponse,correct,True,30.0
177,223,1631.0396666666666,11557,1630.628,1630.634,1630.64,0.3179057832035848,28.424308643566217,-0.2946318387985229,-24.567852020263672,-0.3886725306510925,-36.326637268066406,-0.1193991899490356,-14.295522689819336,-0.1624033451080322,-17.5090274810791,L,False,True,5,R,400,,0.366,RightResponse,correct,True,26.0
178,224,1634.5786666666665,4404,1634.368,1634.372,1634.377,0.2908116696366133,31.916670948775085,0.2615994215011596,30.038862228393555,0.3530831336975097,38.21813583374024,-0.1270321607589721,-10.786131858825684,-0.1141985654830932,-10.012299537658691,L,False,True,5,R,200,,0.321,RightResponse,correct,True,22.0
179,225,1637.7756666666667,4411,1637.661,1637.667,1637.674,0.3879455621951166,40.69222376628951,0.3835194110870361,36.1126823425293,0.4369216561317444,44.4542350769043,-0.0584347546100616,-18.754499435424805,-0.0431452989578247,-10.913134574890137,L,False,True,5,L,100,,0.239,LeftResponse,correct,True,29.0
180,226,1641.9686666666666,11573,1641.905,1641.911,1641.919,0.5614548407712711,51.82581438606675,-0.5333842635154724,-50.197696685791016,-0.4242511689662933,-39.0762939453125,-0.1753076314926147,-12.888222694396973,-0.1675004959106445,-17.9261531829834,L,False,True,5,R,50,,0.347,LeftResponse,incorrect,True,20.0
181,227,1648.7836666666665,11582,1648.773,1648.779,1648.785,0.3550144497111328,32.84392042949029,-0.3377899527549743,-31.26227188110352,-0.3810815513134002,-37.900238037109375,-0.1092392206192016,-10.069432258605955,-0.1294293403625488,-16.10332679748535,L,False,True,5,R,0,,0.208,RightResponse,correct,True,39.0
182,229,1660.4286666666665,11605,1660.319,1660.325,1660.331,0.4144047831237465,41.51964432216132,-0.4140230417251587,-41.51778793334961,-0.4115752577781677,-38.15465927124024,-0.0177832841873168,-0.3926191031932831,-0.1091396808624267,-13.774930000305176,L,False,True,5,L,100,,0.39,LeftResponse,correct,True,28.0
183,230,1665.4746666666665,11617,1665.06,1665.067,1665.073,0.537344723608254,52.03400558128251,-0.5233228802680969,-51.10854721069336,-0.4242808818817138,-41.966407775878906,-0.1219529211521148,-9.770063400268556,-0.050756812095642,-9.090414047241213,L,False,True,5,R,400,,0.305,LeftResponse,incorrect,True,25.0
184,231,1668.7096666666666,4471,1668.601,1668.606,1668.612,0.4127617434776388,40.18355798873648,0.3149756789207458,32.53668975830078,0.4064755439758301,38.730499267578125,-0.2667631506919861,-23.58139419555664,-0.3426465988159179,-32.34880828857422,L,False,True,5,L,100,,0.207,LeftResponse,correct,True,27.0
185,232,1672.3736666666666,14887,1672.163,1672.169,1672.176,0.4959208479902189,43.88502935655173,-0.294653058052063,-31.982669830322266,-0.3886606097221374,-39.62857818603516,-0.398894801735878,-30.05003547668457,-0.3275032043457031,-31.75693702697754,L,False,True,5,R,200,,0.318,LeftResponse,incorrect,True,21.0
186,233,1679.9556666666665,11647,1679.742,1679.749,1679.756,0.4831679944137877,43.45989209339669,-0.4647588729858398,-42.15890121459961,-0.4953474402427673,-42.514495849609375,0.1321003437042236,10.55411148071289,0.0253722667694091,4.289942264556885,L,False,True,5,R,200,,0.371,LeftResponse,incorrect,True,24.0
187,234,1683.7726666666665,11662,1683.755,1683.762,1683.77,0.5010350530981913,42.295904309598725,-0.4674341678619385,-40.854373931884766,-0.3531189560890198,-32.12435531616211,-0.1803924143314361,-10.94822597503662,-0.2334870100021362,-19.03360939025879,L,False,True,5,L,0,,0.366,LeftResponse,correct,True,38.0
188,235,1689.1896666666667,11670,1689.132,1689.138,1689.144,0.3852518888870525,40.10643466542562,-0.3709003925323486,-37.73676681518555,-0.2616533637046814,-21.547382354736328,-0.104172533378005,-13.581698417663574,-0.0584030151367187,-4.593867301940918,L,False,True,5,L,50,,0.276,LeftResponse,correct,True,23.0
189,237,1697.1996666666666,11695,1696.986,1696.993,1696.999,0.4257277642069793,43.019217052608944,-0.4114702939987182,-41.8404655456543,-0.3657925724983215,-35.86347961425781,-0.1092534959316253,-10.001423835754396,-0.2005479335784912,-24.647544860839844,L,False,True,5,L,200,,0.263,LeftResponse,correct,True,27.0
190,238,1700.0356666666667,14934,1699.924,1699.927,1699.931,0.2466204854466732,29.498937678117983,0.1397047042846679,16.995529174804688,0.2768852114677429,33.46186065673828,-0.2032344937324524,-24.110979080200195,-0.1700077056884765,-20.04549598693848,L,False,True,5,R,100,,0.212,LeftResponse,incorrect,True,26.0
191,239,1707.8876666666665,11710,1707.822,1707.827,1707.833,0.2676569354831953,26.30527467144377,-0.2666784524917602,-26.044404983520508,-0.3073538541793823,-32.55965805053711,0.0228656530380249,3.695462703704834,-0.1116589307785034,-13.542287826538086,L,False,True,5,R,50,,0.392,RightResponse,correct,True,22.0
