,trialIndex,targetOnsetTime,Unnamed: 0,startTime,peakVelocityTime,stopTime,amplitude,peakVelocity,saccade_vec_left_x,peak_velocity_vec_left_x,saccade_vec_right_x,peak_velocity_vec_right_x,saccade_vec_left_y,peak_velocity_vec_left_y,saccade_vec_right_y,peak_velocity_vec_right_y,whichEye,otherEyeMissingData,isBinocular,blockId,arrowDirection,latency,blankDuration,fixationDurationInSec,response,result,isSaccade,blankDurationInFrameCount
0,0,493.3856666666667,9471,493.269,493.276,493.281,0.3825425076050893,38.09030757514009,-0.3811138528399169,-38.08828353881836,-0.1753146089613437,-20.464923858642575,0.0330303087830543,0.3926680982112884,0.0152446925640106,6.790817737579346,L,False,True,0,L,100,,0.206,RightResponse,incorrect,True,8.0
1,1,498.59366666666665,9478,498.583,498.588,498.593,0.393215521493359,40.89755528303313,-0.3252083510160446,-34.2300910949707,-0.231206864118576,-24.55271339416504,-0.2210384011268615,-22.381038665771484,-0.132121279835701,-13.789583206176758,L,False,True,0,R,0,,0.391,LeftResponse,incorrect,True,8.0
2,2,504.11466666666666,9491,503.705,503.711,503.715,0.3501222046872826,36.71403492917088,-0.3175985515117645,-33.007171630859375,-0.3277567103505134,-34.87763214111328,-0.1473659332841634,-16.07628631591797,-0.0686013475060463,-5.659034252166748,L,False,True,0,L,400,,0.372,RightResponse,incorrect,True,8.0
3,3,509.17266666666666,9506,509.06,509.066,509.072,0.5370361088608693,53.46934037251573,-0.5335629731416702,-53.333343505859375,-0.4141475260257721,-39.17430114746094,-0.0609781593084335,-3.811145544052124,-0.0711422488093376,-9.932191848754885,L,False,True,0,R,100,,0.304,RightResponse,correct,True,11.0
4,4,515.5386666666667,9515,515.328,515.334,515.341,0.5805420913529449,58.595241751785125,-0.5792897418141365,-58.52964782714844,-0.4878290295600891,-52.1322135925293,-0.0381118729710578,2.7717649936676025,0.0355705767869949,0.8546140193939209,L,False,True,0,L,200,,0.326,RightResponse,incorrect,True,8.0
5,5,519.4816666666667,5934,519.367,519.375,519.382,0.8847854549695924,79.32049774265897,-0.2591604590415954,-28.503042221069336,-0.3175951782613992,-34.64692687988281,0.8459794074296951,74.02241516113281,0.9197169989347458,88.53266906738281,L,False,True,0,R,100,,0.215,RightResponse,correct,True,10.0
6,6,523.1576666666667,9533,522.946,522.951,522.956,0.3173835429607893,35.32556557663797,-0.2998023778200149,-34.27628326416016,-0.2566180154681206,-27.34795570373535,0.1041674017906189,8.545875549316406,0.0025407948996871,-1.7554583549499512,L,False,True,0,R,200,,0.365,NoResponse,incorrect,True,11.0
7,7,528.1496666666667,9553,528.137,528.142,528.146,0.319307771689281,33.02633641227909,-0.2871048972010612,-29.357187271118164,-0.1803923547267913,-22.10441398620605,-0.1397434473037719,-15.129258155822754,-0.3353833109140396,-34.3929557800293,L,False,True,0,R,0,,0.315,RightResponse,correct,True,11.0
8,8,531.6556666666667,9563,531.543,531.548,531.553,0.3336176790360021,36.83591264618697,-0.3328330665826797,-36.79405975341797,-0.2058015540242195,-26.40087890625,-0.022867128252983,-1.7554564476013184,-0.2032631561160087,-14.436312675476074,L,False,True,0,L,100,,0.346,RightResponse,incorrect,True,9.0
9,9,534.6656666666667,9578,534.607,534.612,534.618,0.5571257643903912,66.40681816420857,-0.5564242899417877,-66.40591430664062,-0.4624219983816147,-42.731407165527344,0.027948647737503,-0.34647336602211,0.0076223849318921,0.8084341287612915,L,False,True,0,R,50,,0.312,LeftResponse,incorrect,True,8.0
10,11,544.2866666666666,9600,544.263,544.268,544.272,0.2113547381909784,19.941584650376527,-0.1880142539739608,-18.27016258239746,-0.1397429890930652,-17.462099075317383,-0.0965477377176284,-7.991743087768555,-0.0431935116648674,-4.804412364959717,L,False,True,0,R,0,,0.236,RightResponse,correct,True,10.0
11,12,548.2626666666666,9608,548.049,548.055,548.062,0.4363309418871434,45.25855160033109,-0.4115953743457794,-43.95432662963867,-0.2871070327237248,-31.851974487304688,0.14482381939888,10.786735534667969,0.2845683172345161,22.659217834472656,L,False,True,0,R,200,,0.338,RightResponse,correct,True,17.0
12,13,551.4566666666667,9617,551.393,551.397,551.403,0.3297157005989221,32.707606781776406,-0.2998130321502685,-30.51259422302246,-0.3226795122027397,-34.50851058959961,0.1372027294710278,11.780031204223633,0.0050815865397453,-0.6698456406593323,L,False,True,0,L,50,,0.201,RightResponse,incorrect,True,11.0
13,14,557.5396666666667,9626,557.129,557.135,557.141,0.5266483668678038,55.09065650626785,-0.5056106597185135,-53.425323486328125,-0.4497163221240043,-45.45675659179688,-0.1473647281527519,-13.443037033081056,-0.1575286872684955,-16.053178787231445,L,False,True,0,R,400,,0.323,RightResponse,correct,True,11.0
14,15,562.8556666666667,9638,562.842,562.849,562.854,0.5279607497847989,53.40866689832073,-0.5208455063402653,-53.26242065429688,-0.3328424170613289,-34.462257385253906,-0.0863858312368393,-3.9497146606445312,-0.2947216182947159,-25.66112518310547,L,False,True,0,L,0,,0.358,LeftResponse,correct,True,9.0
15,16,565.8246666666666,9646,565.812,565.818,565.823,0.4103733503235615,45.31578276939393,-0.3988543748855591,-44.13471984863281,-0.3633284927345812,-42.292110443115234,-0.096547782421112,-10.278456687927246,-0.0635198000818491,-9.654999732971191,L,False,True,0,L,0,,0.247,LeftResponse,correct,True,8.0
16,20,586.4706666666667,9694,586.258,586.264,586.27,0.4327386022685041,47.55387341036991,-0.42685067653656,-46.45009231567383,-0.5081431530416012,-51.83041763305664,-0.0711420960724353,-10.18625545501709,-0.1117945909500122,-5.243241310119629,L,False,True,0,L,200,,0.267,RightResponse,incorrect,True,16.0
17,21,589.6136666666666,1790,589.204,589.208,589.212,0.2118536294445154,26.265585863400705,0.1956307590007782,24.55201530456543,0.2515382915735245,27.163373947143555,-0.0813053899910301,-9.331642150878906,-0.0787640213966369,-7.067977428436279,L,False,True,0,L,400,,0.212,RightResponse,incorrect,True,10.0
18,23,597.5406666666667,13634,597.529,597.534,597.541,0.4045879006215288,37.48319498700546,-0.1880111992359161,-22.404298782348636,-0.2947291284799576,-32.660438537597656,-0.3582501336932182,-30.05057907104492,-0.4090589061379432,-42.1069564819336,L,False,True,0,L,0,,0.215,RightResponse,incorrect,True,10.0
19,24,604.2726666666666,1828,604.261,604.264,604.271,0.2631893276472601,27.508214359269008,0.2566195428371429,25.430967330932617,0.1727738380432129,20.464920043945312,-0.0584382787346839,-10.48655128479004,-0.1168765313923358,-10.070782661437988,L,False,True,0,R,0,,0.309,RightResponse,correct,True,13.0
20,25,607.5746666666666,9738,607.362,607.365,607.371,0.2411694571684079,23.714055498905903,-0.1803905218839645,-18.52416229248047,-0.208344779908657,-19.979835510253903,-0.1600686311721801,-14.805804252624512,-0.0254076719284057,-2.679353713989258,L,False,True,0,R,200,,0.299,RightResponse,correct,True,19.0
21,26,613.8366666666667,9744,613.722,613.728,613.734,0.359685820311389,34.78880360184259,-0.3557064295746386,-34.646690368652344,-0.3607916235923767,-31.967750549316406,0.053355649113655,3.1412899494171143,-0.0838454514741897,-8.176642417907715,L,False,True,0,L,100,,0.269,RightResponse,incorrect,True,12.0
22,27,617.6166666666667,9765,617.556,617.56,617.564,0.2354175642270079,27.2958618886618,-0.2337528094649315,-27.140277862548828,-0.2871088609099388,-32.291099548339844,0.0279473364353179,2.910222291946411,0.0203262567520141,2.3328983783721924,L,False,True,0,L,50,,0.366,RightResponse,incorrect,True,13.0
23,28,621.0636666666667,1879,620.952,620.956,620.961,0.2133035028008365,22.33566516648308,0.2083432748913765,21.642757415771484,0.3252163752913475,34.99313735961914,-0.0457325279712677,-5.52023458480835,0.010163128376007,2.8410580158233643,L,False,True,0,R,100,,0.234,RightResponse,correct,True,15.0
24,29,627.0386666666667,1889,626.825,626.828,626.833,0.2266394285980643,25.86040446081253,0.2261261492967605,25.84627914428711,0.2413745000958442,24.71493530273437,-0.0152445137500762,0.8546187877655029,-0.0813048556447029,-8.084280967712402,L,False,True,0,R,200,,0.261,RightResponse,correct,True,18.0
25,30,632.2136666666667,1903,632.152,632.158,632.163,0.3170560874585171,35.154976423250325,0.3150543831288814,35.10877990722656,0.3709544390439987,39.26668548583984,0.0355710312724113,1.8016494512557983,-0.0355711113661527,-4.29625129699707,L,False,True,0,L,50,,0.341,LeftResponse,correct,True,16.0
26,31,635.8146666666667,9808,635.399,635.404,635.409,0.312832546063297,32.765779638394804,-0.2921761870384216,-31.73513603210449,-0.2489957455545663,-23.21347427368164,0.1117912232875824,8.15337085723877,0.1346620619297027,16.399667739868164,L,False,True,0,R,400,,0.341,RightResponse,correct,True,13.0
27,32,638.8166666666667,1921,638.705,638.709,638.713,0.200865022288539,21.883799693025395,0.1651491373777389,18.616823196411133,0.2413751482963562,25.86988067626953,-0.1143351197242736,-11.5028076171875,-0.1422843066975474,-18.848052978515625,L,False,True,0,L,100,,0.207,LeftResponse,correct,True,14.0
28,33,642.4636666666667,9821,642.4,642.405,642.41,0.3312775515674203,34.223660131593455,-0.3099756762385368,-31.41336441040039,-0.3125145179219544,-30.951196670532227,0.116875559091568,13.581584930419922,0.0863869190216064,7.137319564819336,L,False,True,0,L,50,,0.348,RightResponse,incorrect,True,15.0
29,34,648.0266666666666,1938,647.616,647.62,647.624,0.188120971334594,21.05451581617692,0.1803955920040607,20.09528541564941,0.2210470177233219,24.13731002807617,-0.0533566325902938,-6.28268575668335,-0.0863869963213801,-12.149614334106444,L,False,True,0,R,400,,0.311,RightResponse,correct,True,12.0
30,35,651.3736666666666,13705,651.164,651.168,651.173,0.3453691486161638,37.07295736613525,0.1295804567635059,14.066757202148438,0.2794868946075439,30.189212799072266,-0.3201386481523514,-34.30059051513672,-0.4039822705090046,-44.04777145385742,L,False,True,0,L,200,,0.324,LeftResponse,correct,True,17.0
31,36,654.8376666666667,9846,654.775,654.781,654.786,0.4086950767327796,41.242338238003406,-0.3989030122756958,-40.7680892944336,-0.2794850529171526,-30.905065536499023,-0.0889272317290306,-6.236454010009766,-0.0660600364208221,-5.335610389709473,L,False,True,0,R,50,,0.272,RightResponse,correct,True,18.0
32,37,657.8896666666667,9852,657.476,657.485,657.489,0.4330723277816738,41.54653825238917,-0.4116041921079159,-37.256832122802734,-0.3760347366333008,-34.808570861816406,0.1346611678600311,18.38595390319824,0.1448252014815807,8.869671821594238,L,False,True,0,L,400,,0.237,RightResponse,incorrect,True,11.0
33,39,669.7716666666666,9870,669.66,669.665,669.671,0.4096764649674089,44.73870291890557,-0.3760247826576233,-42.93804550170898,-0.2871091812849045,-29.704160690307617,0.1626043319702148,12.564863204956056,0.020326355472207,0.0923925042152404,L,False,True,0,R,100,,0.371,RightResponse,correct,True,13.0
34,40,854.1636666666667,10243,854.151,854.157,854.162,0.4127201931469461,39.08228699273808,-0.4115925133228302,-39.08053970336914,-0.2947225123643875,-32.705902099609375,0.0304886996746063,0.3695579469203949,0.0025407932698726,-5.104687690734863,L,False,True,1,R,0,,0.227,RightResponse,correct,True,12.0
35,41,858.6516666666666,10250,858.639,858.644,858.649,0.2932123046108628,32.15244751473545,-0.2896237075328827,-32.05731964111328,-0.2108847219496965,-25.01515769958496,-0.0457336157560348,-2.471464872360229,-0.0482750991359353,-6.559869289398193,L,False,True,1,L,0,,0.365,LeftResponse,correct,True,11.0
36,42,861.7786666666667,2413,861.756,861.76,861.766,0.231419643682794,24.83266901738249,0.2311963737010955,24.690195083618164,0.2337527647614479,23.9758358001709,-0.0101630836725234,-2.6562600135803223,0.0533566721715033,3.8342883586883545,L,False,True,1,L,0,,0.295,RightResponse,incorrect,True,10.0
37,43,865.9506666666666,2418,865.539,865.545,865.551,0.5379553901331344,56.88962140332979,0.52335125207901,55.453067779541016,0.602152943611145,59.19931411743164,-0.1244968622922897,-12.703790664672852,-0.0889265984296798,-8.985075950622559,L,False,True,1,R,400,,0.329,LeftResponse,incorrect,True,14.0
38,44,870.2716666666666,10273,870.256,870.263,870.268,0.5657192250295442,53.133725166368514,-0.4293359518051147,-40.6006088256836,-0.2591604590415954,-28.295150756835938,-0.3683868646621704,-34.27511215209961,-0.409064806997776,-37.78837966918945,L,False,True,1,L,0,,0.317,LeftResponse,correct,True,13.0
39,45,874.7226666666667,10284,874.709,874.714,874.718,0.2393168605810166,22.70705863510118,-0.2388308122754097,-22.65888786315918,-0.1981816440820694,-23.30597305297852,0.0152447652071714,1.4782803058624268,0.0355709642171859,6.467442512512207,L,False,True,1,R,0,,0.218,RightResponse,correct,True,12.0
40,46,878.5066666666667,10289,878.394,878.401,878.407,0.5740667643989722,54.50100345749308,-0.5208557471632957,-49.77591323852539,-0.4039846956729889,-41.36863708496094,-0.2413751035928726,-22.197248458862305,-0.2413734756410122,-21.388717651367188,L,False,True,1,R,100,,0.247,RightResponse,correct,True,12.0
41,47,882.1836666666667,2465,881.771,881.777,881.783,0.4192580902576174,47.13969595491802,0.4192272946238518,47.07364654541016,0.492900300770998,49.28987884521485,-0.0050815045833587,2.49454116821289,0.0177855044603347,-0.6467459797859192,L,False,True,1,R,400,,0.361,RightResponse,correct,True,17.0
42,48,884.8306666666667,10308,884.76,884.765,884.767,0.2802907631804106,32.66463634105445,-0.1956392079591751,-19.171232223510746,-0.0508158672600984,-7.668575763702393,0.2007192373275756,26.446971893310547,0.1448227316141128,19.56382179260254,L,False,True,1,L,50,,0.331,LeftResponse,correct,True,17.0
43,49,889.0646666666667,2482,889.003,889.006,889.01,0.1372966174736483,17.19849431577528,0.1372025460004806,17.13876724243164,0.1778554767370224,21.689128875732425,-0.0050815884023904,-1.4320838451385498,0.0177853852510452,3.5108835697174072,L,False,True,1,R,50,,0.274,RightResponse,correct,True,16.0
44,50,891.6506666666667,10318,891.535,891.543,891.549,0.7021937721494811,70.1276815282209,-0.6860058605670929,-68.11589050292969,-0.5538830235600471,-51.577632904052734,0.1499068140983581,16.67684555053711,0.1219567209482193,11.11009120941162,L,False,True,1,R,100,,0.209,LeftResponse,incorrect,True,11.0
45,52,897.0216666666666,10326,896.963,896.968,896.974,0.4373935724790068,47.20200579875953,-0.4039708077907562,-43.21500015258789,-0.3734924905002117,-35.01646041870117,0.1676923483610153,18.986656188964844,0.0762235969305038,11.826183319091797,L,False,True,1,L,50,,0.23,LeftResponse,correct,True,15.0
46,53,900.8266666666667,10331,900.715,900.722,900.727,0.4422119782771934,45.26435095948367,-0.4420951753854751,-45.249019622802734,-0.3430014662444591,-38.0649642944336,0.0101631507277488,-1.178002953529358,-0.1448249579407274,-14.551806449890137,L,False,True,1,R,100,,0.368,LeftResponse,incorrect,True,14.0
47,54,905.4936666666666,10337,905.38,905.386,905.392,0.4148378074770579,43.28248676727958,-0.388737715780735,-40.421348571777344,-0.4116032719612121,-43.724266052246094,0.1448219418525695,15.475407600402832,-0.0355710797011852,-2.4945952892303467,L,False,True,1,L,100,,0.266,LeftResponse,correct,True,17.0
48,55,909.0906666666667,10341,908.876,908.881,908.887,0.3219084631628789,36.72065923843183,-0.3150572553277015,-36.49493789672852,-0.2718645483255386,-27.463647842407227,0.0660604611039161,4.065258026123047,-0.0228671133518219,-7.576167106628418,L,False,True,1,R,200,,0.293,LeftResponse,incorrect,True,15.0
49,56,912.7886666666667,10347,912.772,912.781,912.785,0.2713380309718206,20.872029094265503,-0.2693201154470444,-20.395435333251957,-0.2540786080062389,-27.00165557861328,-0.0330303264781832,-4.434841156005859,-0.0558963268995285,-3.533935308456421,L,False,True,1,R,0,,0.267,RightResponse,correct,True,11.0
50,57,917.1676666666667,2538,916.959,916.962,916.967,0.2351960232761863,28.052615561501906,0.2108679115772247,23.69675636291504,0.2896482902579009,31.667356491088867,-0.1041724206879735,-15.01375961303711,-0.0914684906601905,-8.915872573852539,L,False,True,1,L,200,,0.364,LeftResponse,correct,True,18.0
51,58,919.9446666666666,2542,919.884,919.891,919.895,0.3069930880373893,30.68574355492818,0.269310861825943,25.15245056152344,0.3455457016825676,30.189001083374023,-0.1473649069666862,-17.577516555786133,-0.1143355369567871,-7.16040563583374,L,False,True,1,L,50,,0.204,LeftResponse,correct,True,14.0
52,59,925.1826666666667,10369,925.121,925.126,925.133,0.3442368579335137,32.365609357172566,-0.3404655158519745,-32.106353759765625,-0.3963576853275299,-35.45523452758789,-0.0508158132433891,-4.0883636474609375,-0.0355709195137023,-2.586980104446411,L,False,True,1,L,50,,0.381,LeftResponse,correct,True,13.0
53,60,928.5546666666667,10376,928.143,928.151,928.157,0.6801789278593348,71.97059123362646,-0.6732916161417961,-70.51732635498047,-0.5691239312291145,-59.106441497802734,0.0965493321418762,14.390020370483398,-0.0050815865397453,0.7391406297683716,L,False,True,1,R,400,,0.234,RightResponse,correct,True,16.0
54,61,932.6646666666667,10385,932.452,932.457,932.461,0.2976915598328585,34.470185197067515,-0.2667662501335144,-30.418272018432617,-0.2210482126101851,-27.39428329467773,0.132121279835701,16.214881896972656,-0.0762231200933456,-9.770429611206056,L,False,True,1,R,200,,0.271,RightResponse,correct,True,17.0
55,62,936.8696666666667,10390,936.858,936.863,936.868,0.262888249537271,29.14224793138297,-0.2413685023784637,-27.83246612548828,-0.2464498281478881,-26.446617126464844,0.1041704267263412,8.638544082641602,0.081305056810379,8.130514144897461,L,False,True,1,R,0,,0.253,LeftResponse,incorrect,True,10.0
56,63,941.8276666666667,10394,941.715,941.722,941.727,0.3967930097368602,34.46480658646042,-0.3684132322669029,-32.845455169677734,-0.297264814376831,-36.33228302001953,-0.1473647952079773,-10.44025707244873,-0.1041723452508449,-8.061232566833496,L,False,True,1,R,100,,0.266,RightResponse,correct,True,16.0
57,64,945.1296666666667,10399,944.916,944.922,944.928,0.4803733089210454,48.11579388992135,-0.4802052974700928,-47.99747085571289,-0.3557088151574135,-41.06824493408203,-0.0127038657665252,-3.372300863265991,0.0457342891022563,2.3791041374206543,L,False,True,1,L,200,,0.242,LeftResponse,correct,True,16.0
58,66,954.0096666666667,2604,953.899,953.901,953.907,0.1638942955424894,19.66458470369297,0.1549659371376037,14.480597496032717,0.1803962662816047,21.08857727050781,-0.05335633456707,-13.304442405700684,-0.0228660702705383,-6.213099002838135,L,False,True,1,L,100,,0.211,LeftResponse,correct,True,15.0
59,67,957.0656666666666,10424,957.003,957.008,957.013,0.2806908191208158,28.95472733334844,-0.2489910274744033,-27.555326461791992,-0.2083448767662048,-22.22038459777832,0.1295793354511261,8.892705917358398,0.2134252227842807,15.591148376464844,L,False,True,1,R,50,,0.258,RightResponse,correct,True,12.0
60,68,961.3496666666666,2621,961.342,961.345,961.351,0.2492948546687297,28.16363212842081,0.2489709556102752,28.13064193725586,0.2261303663253784,22.28968048095703,-0.012703850865364,-1.3627761602401731,0.0050815716385841,1.52447247505188,L,False,True,1,L,0,,0.336,RightResponse,incorrect,True,13.0
61,69,966.1966666666667,10446,965.787,965.793,965.798,0.4908462268392798,52.11259657913383,-0.4852844476699829,-51.87764739990234,-0.4116021036170423,-40.767391204833984,-0.0736819058656692,-4.942916393280029,-0.0533563494682312,-9.30849838256836,L,False,True,1,L,400,,0.329,LeftResponse,correct,True,15.0
62,70,971.1916666666667,10452,971.128,971.133,971.139,0.2553407163024761,23.39123543062969,-0.2540734559297561,-23.051382064819336,-0.2617011740803718,-26.470415115356445,0.0254078805446624,3.972867965698242,-0.0279483646154403,-4.642679214477539,L,False,True,1,R,50,,0.392,RightResponse,correct,True,11.0
63,71,973.9526666666667,10456,973.739,973.744,973.749,0.3612875564776229,35.254390219138166,-0.3226243257522583,-32.88588333129883,-0.3328431993722915,-37.83466339111328,0.1626107096672058,12.703964233398438,0.2616823613643646,28.016036987304688,L,False,True,1,R,200,,0.205,LeftResponse,incorrect,True,15.0
64,72,978.2736666666667,2659,977.862,977.866,977.87,0.1775166798021872,20.62165171198001,0.1753027141094207,20.48662376403809,0.238831378519535,25.222841262817383,-0.0279487036168575,-2.356006383895874,-0.0203261226415634,-2.032612562179565,L,False,True,1,L,400,,0.266,LeftResponse,correct,True,14.0
65,73,982.1876666666667,10469,981.776,981.781,981.788,0.4374289011044002,41.40174827929431,-0.4090510308742523,-39.42677688598633,-0.3150554001331329,-33.69986343383789,-0.1549880565144121,-12.634635925292969,-0.1753137968480587,-14.898244857788086,L,False,True,1,R,400,,0.339,LeftResponse,incorrect,True,13.0
66,74,985.1106666666667,2679,984.899,984.907,984.912,0.5470624915690199,55.98706036714902,0.5462121963500977,55.86798858642578,0.6174039840698242,57.21290588378906,-0.030489444732666,-3.649490356445313,0.1067125722765922,11.063920021057127,L,False,True,1,L,200,,0.298,LeftResponse,correct,True,18.0
67,75,989.4486666666667,10480,989.038,989.044,989.049,0.3814645730499225,41.26347851319744,-0.3709542751312256,-40.76803970336914,-0.3404620690271258,-41.34508514404297,-0.0889277586247772,-6.3750762939453125,-0.0431933924555778,-2.425297975540161,L,False,True,1,L,400,,0.275,LeftResponse,correct,True,16.0
68,76,992.5466666666666,2702,992.436,992.442,992.447,0.417780831366447,43.15321423430222,0.4064719080924988,41.84814453125,0.4573356136679649,48.48221969604492,-0.0965474545955658,-10.532459259033203,-0.0762238195165991,-9.44713306427002,L,False,True,1,L,100,,0.28,RightResponse,incorrect,True,14.0
69,77,997.7756666666667,10503,997.663,997.667,997.674,0.3696756789023269,36.60081867261192,-0.348080649971962,-34.94656753540039,-0.3861972317099571,-39.474517822265625,-0.1244988702237606,-10.879216194152832,-0.2235891595482826,-20.488014221191406,L,False,True,1,L,100,,0.217,LeftResponse,correct,True,17.0
70,78,1000.6316666666667,2732,1000.571,1000.577,1000.583,0.4489619881044264,48.15355977677619,0.4471177458763122,47.991302490234375,0.6275214403867722,64.23001861572266,-0.0406520366668701,-3.949709415435791,-0.073682983405888,-3.141340732574463,L,False,True,1,R,50,,0.37,RightResponse,correct,True,10.0
71,79,1004.5036666666666,10513,1004.091,1004.097,1004.102,0.2900322477114456,29.938146367066537,-0.2896313369274139,-29.47132873535156,-0.3887393251061439,-42.338661193847656,-0.0152444541454315,-5.266250133514404,0.0787641033530235,5.589713096618652,L,False,True,1,L,400,,0.385,LeftResponse,correct,True,15.0
72,80,1268.5496666666666,10638,1268.337,1268.342,1268.347,0.3176270512790571,33.603567078239365,-0.3175864070653915,-33.49098205566406,-0.3404641188681125,-37.25705337524414,0.0050811171531677,-2.748425245285034,0.0330297499895095,6.490459442138672,L,False,True,2,R,200,,0.225,RightResponse,correct,True,17.0
73,81,1273.2876666666666,2894,1273.174,1273.178,1273.186,0.3241267755327523,27.964616791087806,0.3150396645069122,25.752662658691406,0.3226741924881935,27.902158737182617,-0.076211392879486,-10.900465965270996,-0.0838460065424442,-9.21613883972168,L,False,True,2,R,100,,0.398,RightResponse,correct,True,16.0
74,82,1276.2016666666666,10650,1276.13,1276.135,1276.139,0.3015876814262784,33.50909291186044,-0.2616976648569107,-30.00395965576172,-0.200721476227045,-21.29634666442871,0.1498981714248657,14.920513153076172,0.0635198536328971,4.665822505950928,L,False,True,2,L,50,,0.303,LeftResponse,correct,True,9.0
75,83,1279.2326666666665,2905,1278.823,1278.828,1278.833,0.3015245685592615,34.95642875652391,0.2896333336830139,33.675148010253906,0.3887341581285,41.06755828857422,0.0838426947593689,9.377436637878418,0.1168762296438217,11.68763542175293,L,False,True,2,L,400,,0.282,LeftResponse,correct,True,14.0
76,84,1284.1706666666666,2910,1283.958,1283.962,1283.967,0.2468092667298353,25.96429791485429,0.2311980128288269,25.198501586914062,0.2591564133763313,28.04062843322754,-0.0863845646381378,-6.259415626525879,-0.0711417496204376,-6.490527153015137,L,False,True,2,L,200,,0.254,LeftResponse,correct,True,16.0
77,86,1290.4986666666666,2920,1290.439,1290.443,1290.448,0.2541266863105297,28.600102763360777,0.2489942908287048,26.562456130981445,0.2337477356195449,26.516090393066406,-0.0508155077695846,-10.601971626281738,-0.1346620470285415,-12.542283058166504,L,False,True,2,L,50,,0.35,LeftResponse,correct,True,8.0
78,87,1294.7956666666666,10670,1294.682,1294.688,1294.693,0.4411759810376758,39.81967893335459,-0.370937705039978,-37.44024658203125,-0.2744053304195404,-28.98811912536621,-0.2388335512951016,-13.558568000793455,-0.0863866582512855,-10.417194366455078,L,False,True,2,R,100,,0.372,RightResponse,correct,True,15.0
79,88,1297.4636666666665,2938,1297.246,1297.252,1297.257,0.3608255689404583,32.95071149228449,0.3607897870242595,32.8453369140625,0.3887400925159454,37.97323989868164,-0.0050814151763916,-2.6331028938293457,0.0584378242492675,5.77448320388794,L,False,True,2,R,200,,0.33,RightResponse,correct,True,15.0
80,90,1308.6346666666666,2950,1308.214,1308.218,1308.221,0.1577097393277579,18.18068262075272,0.1575254499912262,18.177806854248047,0.1829359866678714,19.263696670532227,-0.0076219737529754,-0.323355108499527,-0.0025407671928405,-0.13858662545681,L,False,True,2,R,400,,0.347,RightResponse,correct,True,16.0
81,91,1311.7066666666665,10693,1311.294,1311.3,1311.305,0.3762203627370685,38.82478953115055,-0.3760058283805847,-38.73223114013672,-0.2566195428371429,-25.985336303710938,0.0127034783363342,2.679282188415528,-0.0254072844982147,-2.841005325317383,L,False,True,2,L,400,,0.358,LeftResponse,correct,True,15.0
82,92,1315.9286666666665,10697,1315.518,1315.523,1315.528,0.2874507222527529,29.07226738662729,-0.2845616787672043,-28.640981674194336,-0.2718644961714744,-25.731294631958008,0.040651798248291,4.989078044891357,0.0482736527919769,1.5244300365447998,L,False,True,2,R,400,,0.313,LeftResponse,incorrect,True,14.0
83,93,1318.5186666666666,2970,1318.507,1318.512,1318.518,0.41410737372966,48.39099206910875,0.4014426246285438,46.98129653930664,0.4141404926776886,47.5117073059082,-0.1016303896903991,-11.595080375671388,-0.2032627186272293,-18.640087127685547,L,False,True,2,R,0,,0.271,RightResponse,correct,True,16.0
84,94,1323.5646666666667,10711,1323.503,1323.509,1323.515,0.4131108994787851,41.22450018054276,-0.4039782229810953,-39.10441970825195,-0.3760353401303291,-40.07502365112305,0.0863840878009796,13.050048828125,0.0914679244160652,4.688894748687744,L,False,True,2,R,50,,0.358,RightResponse,correct,True,7.0
85,95,1328.4226666666666,2983,1328.211,1328.215,1328.22,0.2510554595006965,28.18090951352821,0.2032615840435028,22.33567237854004,0.3226677626371383,31.781787872314453,-0.1473552584648132,-17.183753967285156,-0.1194168105721473,-11.595226287841797,L,False,True,2,R,200,,0.211,LeftResponse,incorrect,True,14.0
86,96,1332.0496666666666,10721,1331.936,1331.942,1331.948,0.437012799852542,43.51459654862992,-0.4369832575321197,-43.51371383666992,-0.2845679223537445,-31.759824752807617,-0.0050813257694244,0.2771658897399902,-0.1295787841081619,-11.317968368530272,L,False,True,2,L,100,,0.249,LeftResponse,correct,True,14.0
87,97,1335.1096666666665,2995,1335.095,1335.099,1335.103,0.2273223704345024,25.209523519591382,0.2058014273643493,22.77442741394043,0.188018649816513,22.613056182861328,-0.0965465307235717,-10.809511184692385,-0.106711596250534,-12.126331329345703,L,False,True,2,R,0,,0.354,RightResponse,correct,True,15.0
88,98,1337.7656666666664,6791,1337.74,1337.747,1337.753,0.5908476848191186,56.04042112626262,-0.0686004012823104,-5.196930408477783,-0.0889275595545768,-7.853352069854736,0.5868517458438873,55.79893112182617,0.4369998946785927,40.69774627685547,L,False,True,2,R,0,,0.323,RightResponse,correct,True,14.0
89,99,1340.6346666666666,10732,1340.42,1340.426,1340.43,0.3957364454051853,41.94094672895326,-0.3607910200953483,-37.97312927246094,-0.200721375644207,-22.01239776611328,0.162595123052597,17.806865692138672,0.2185017168521881,15.567734718322754,L,False,True,2,L,200,,0.284,LeftResponse,correct,True,17.0
90,100,1343.7856666666667,10736,1343.774,1343.78,1343.786,0.3697388826834653,35.378976536761606,-0.3658689660951495,-33.74589920043945,-0.3938216269016266,-39.45151138305664,0.0533548593521118,10.624794960021973,-0.0355705916881561,-7.4837236404418945,L,False,True,2,L,0,,0.377,RightResponse,incorrect,True,13.0
91,101,1347.3076666666666,3013,1347.095,1347.1,1347.106,0.3487897077976585,35.23512075582602,0.3379235453903675,34.7393913269043,0.5005283951759338,49.406349182128906,0.086382508277893,5.889688014984131,0.1448216885328292,12.241686820983888,L,False,True,2,L,200,,0.274,LeftResponse,correct,True,16.0
92,102,1351.3836666666666,3018,1351.325,1351.33,1351.335,0.3151497542661958,34.932010921374506,0.3150575682520866,34.87808990478516,0.322672501206398,30.858325958251957,-0.007622092962265,-1.940162777900696,-0.1397424861788749,-15.452542304992676,L,False,True,2,L,50,,0.259,RightResponse,incorrect,True,6.0
93,103,1354.2406666666666,3024,1354.13,1354.135,1354.138,0.1995750116861977,23.9653338555804,0.1702316999435424,18.917224884033203,0.2312110534403473,27.833080291748047,0.1041698306798935,14.713117599487305,0.0101630985736846,1.7554463148117063,L,False,True,2,L,100,,0.206,LeftResponse,correct,True,13.0
94,104,1358.2496666666666,10754,1358.187,1358.191,1358.195,0.3001351167328331,33.228859869682694,-0.2921903803944587,-32.70685577392578,-0.2134252227842807,-23.9987850189209,0.0685993432998657,5.866746425628662,0.0457342995796352,3.395425319671631,L,False,True,2,R,50,,0.313,RightResponse,correct,True,9.0
95,105,1362.2046666666665,10761,1362.138,1362.145,1362.15,0.4340815224361871,45.41576398329074,-0.4319272595457732,-45.3869743347168,-0.2159672603011131,-26.008472442626957,0.0431927144527435,1.616842269897461,0.2464510202407837,21.08818244934082,L,False,True,2,R,50,,0.331,LeftResponse,incorrect,True,8.0
96,106,1366.5676666666666,3042,1366.458,1366.462,1366.467,0.2388469800224351,26.55730367273882,0.238833466079086,26.42413330078125,0.2388336360454559,25.754323959350582,0.0025407373905181,2.6562299728393555,-0.0711418092250824,-6.421246528625488,L,False,True,2,L,100,,0.33,LeftResponse,correct,True,12.0
97,107,1371.3396666666665,10772,1371.223,1371.23,1371.237,0.5060742187268843,46.68258680168582,-0.4878296852111816,-46.35778427124024,-0.3125145179219544,-30.235239028930664,-0.1346599906682968,-5.497249126434326,-0.1270335912704467,-6.4902663230896,L,False,True,2,R,100,,0.392,LeftResponse,incorrect,True,11.0
98,108,1375.0236666666665,10778,1375.013,1375.019,1375.025,0.5310371573575274,53.87028079024601,-0.5310128442943096,-53.748085021972656,-0.3709529563784599,-35.20136260986328,-0.0050815045833587,-3.626363039016724,-0.0355705618858337,-2.240480899810791,L,False,True,2,R,0,,0.363,RightResponse,correct,True,16.0
99,109,1377.7926666666665,10783,1377.684,1377.69,1377.695,0.4421922572272617,44.63219284608992,-0.4141408149152994,-42.52289962768555,-0.4370146095752716,-39.10503005981445,-0.1549883149564266,-13.558600425720217,-0.0228663086891174,-2.4021215438842773,L,False,True,2,L,100,,0.219,RightResponse,incorrect,True,14.0
100,110,1381.5896666666665,10790,1381.166,1381.171,1381.176,0.3038010471457915,30.814171474567004,-0.2947302814573049,-30.535531997680664,-0.2235891334712505,-22.49752426147461,-0.0736826807260513,-4.134543418884277,-0.0304895313456654,-0.6236494779586792,L,False,True,2,L,400,,0.354,LeftResponse,correct,True,17.0
101,111,1385.7276666666667,10799,1385.665,1385.67,1385.675,0.2912601904056922,33.64893012878864,-0.2667824663221836,-30.35084342956543,-0.2617011964321136,-28.52613067626953,0.1168743520975112,14.528482437133787,-0.0965497940778732,-7.483772754669189,L,False,True,2,L,50,,0.352,LeftResponse,correct,True,11.0
102,112,1388.7126666666666,10807,1388.603,1388.609,1388.616,0.5297322675925744,44.84155043813517,-0.5208593904972076,-43.95560073852539,-0.439555361866951,-42.59280776977539,-0.096549317240715,-8.869600296020508,-0.0711409747600555,-8.892646789550781,L,False,True,2,R,100,,0.255,RightResponse,correct,True,17.0
103,113,1391.2156666666665,3100,1391.202,1391.209,1391.214,0.3247435023243962,32.33130535561835,0.3048938177525997,30.53554916381836,0.4116063266992569,43.58598709106445,-0.1117949113249778,-10.625137329101562,-0.0228670910000801,-6.097893238067627,L,False,True,2,L,0,,0.265,LeftResponse,correct,True,15.0
104,114,1395.1206666666665,10815,1394.708,1394.714,1394.72,0.57945792760083,64.02944048338694,-0.576755553483963,-64.02760314941406,-0.4370085555128753,-51.48489761352539,0.0558974184095859,0.4850603640079498,-0.0177855491638183,-2.910362720489502,L,False,True,2,L,400,,0.298,RightResponse,incorrect,True,16.0
105,115,1398.4136666666666,3118,1398.201,1398.207,1398.212,0.3772403761878751,38.90840677863631,0.3379198797047138,35.431907653808594,0.4497167393565178,48.29778671264648,0.1676915511488914,16.076194763183594,0.0762226730585098,7.945642948150635,L,False,True,2,R,200,,0.299,RightResponse,correct,True,15.0
106,116,1403.0686666666666,3127,1402.855,1402.858,1402.863,0.2420295098127633,29.276807526759168,0.2413751557469368,28.71094512939453,0.1676915511488914,20.53412628173828,0.0177853256464004,5.728271007537842,0.0101630538702011,-0.8315218687057495,L,False,True,2,L,200,,0.213,LeftResponse,correct,True,14.0
107,117,1405.6456666666666,10832,1405.631,1405.638,1405.642,0.3917258508613981,40.51006777870585,-0.3887398988008499,-39.220489501953125,-0.2413751110434532,-24.36849021911621,0.0482745617628097,10.139960289001465,0.2108836323022842,13.789505004882812,L,False,True,2,L,0,,0.315,RightResponse,incorrect,True,14.0
108,118,1409.4756666666665,10838,1409.06,1409.067,1409.074,0.4374762541287481,40.727504351148376,-0.4370038136839866,-39.95865249633789,-0.2591603845357895,-27.27878189086914,0.0203258395195007,7.876274585723877,0.0127037614583969,5.52031135559082,L,False,True,2,R,400,,0.242,LeftResponse,incorrect,True,19.0
109,119,1412.1196666666665,6907,1412.099,1412.103,1412.108,0.3697350518570492,42.90858859448283,-0.0914683304727077,-9.562579154968262,-0.0787644013762474,-7.553062915802002,0.3582423105835914,41.82946395874024,0.4217602238059044,40.535980224609375,L,False,True,2,L,0,,0.329,RightResponse,incorrect,True,17.0
110,120,1648.3956666666666,11055,1648.385,1648.391,1648.396,0.3467948985272515,34.25169664202346,-0.3404450416564941,-33.67488098144531,-0.3277594624087214,-28.01775932312012,-0.0660596340894699,-6.259481906890869,-0.106710284948349,-7.945496559143066,L,False,True,3,L,0,,0.295,LeftResponse,correct,True,20.0
111,121,1653.2126666666666,3342,1653.003,1653.006,1653.011,0.2875475906421944,30.233812272572116,0.2083449587225914,22.10489654541016,0.2464376389980316,27.230653762817383,-0.1981817223131656,-20.62660789489746,-0.1753137707710266,-20.742006301879883,L,False,True,3,L,200,,0.34,RightResponse,incorrect,True,13.0
112,122,1656.0146666666665,11066,1655.801,1655.806,1655.81,0.3485875421255027,38.37882323236935,-0.2998021990060806,-31.897260665893555,-0.2845574915409088,-31.64320182800293,-0.1778536364436149,-21.342418670654297,-0.2947299377992749,-29.14969253540039,L,False,True,3,R,200,,0.279,RightResponse,correct,True,16.0
113,123,1660.2236666666665,11072,1660.159,1660.166,1660.172,0.4808494506986168,45.10930679233771,-0.4801777154207229,-44.899810791015625,-0.4243055498227477,-46.01069259643555,0.0254077911376953,4.342412948608398,-0.0279476046562194,-2.8178300857543945,L,False,True,3,L,50,,0.312,RightResponse,incorrect,True,10.0
114,124,1663.2296666666666,11075,1663.017,1663.024,1663.031,0.7597387414003417,75.63247892549691,-0.7494686394929886,-74.4156723022461,-0.4979926496744156,-53.40264129638672,-0.1244978457689285,-13.512201309204102,-0.0762224048376083,-10.024371147155762,L,False,True,3,R,200,,0.351,RightResponse,correct,True,15.0
115,126,1673.1966666666665,3378,1672.786,1672.788,1672.793,0.1602311779040585,19.906035861590848,0.1549883745610714,19.125246047973636,0.2235744595527649,27.415695190429688,-0.0406526029109954,-5.520437240600586,0.0,-0.4388512670993805,L,False,True,3,R,400,,0.358,RightResponse,correct,True,21.0
116,128,1680.2996666666666,11101,1680.084,1680.091,1680.098,0.5477232458420634,51.88242254488077,-0.5437248796224594,-50.79243850708008,-0.4268419817090034,-45.40937042236328,0.0660606487654149,10.578939437866213,0.020326092839241,7.576111793518066,L,False,True,3,R,200,,0.298,RightResponse,correct,True,13.0
117,129,1684.5546666666667,11106,1684.143,1684.15,1684.155,0.3642170895722704,37.14572929121644,-0.3633297756314277,-37.04896926879883,-0.2693222186062485,-27.90239143371582,-0.0254079215228557,-2.6793806552886963,-0.2185066118836403,-18.96337890625,L,False,True,3,L,400,,0.295,LeftResponse,correct,True,20.0
118,130,1688.6016666666665,11109,1688.492,1688.497,1688.503,0.3785151584599427,40.47047584526389,-0.3430037377402186,-36.86426162719727,-0.3048923653550446,-27.347976684570312,0.1600692383944988,16.69986915588379,-0.0533565990626812,-0.6698447465896606,L,False,True,3,R,100,,0.309,RightResponse,correct,True,16.0
119,131,1693.3896666666665,3404,1693.326,1693.331,1693.336,0.2975195848827441,32.80879990916313,0.2947293305769562,32.33710861206055,0.3531688600778579,36.21775817871094,-0.040651261806488,-5.5433526039123535,-0.0228664875030517,3.187441349029541,L,False,True,3,L,50,,0.381,LeftResponse,correct,True,13.0
120,132,1697.4986666666666,11121,1697.438,1697.445,1697.451,0.507170344450332,50.631020886596325,-0.4852886497974396,-48.64439010620117,-0.4827449023723602,-54.44180679321289,0.147365819197148,14.043631553649902,-0.0406527125742286,-3.857388496398926,L,False,True,3,R,50,,0.269,RightResponse,correct,True,12.0
121,133,1701.0336666666665,11123,1700.922,1700.927,1700.933,0.30556470367387,32.364603991969695,-0.3048879355192184,-32.1979866027832,-0.2591549158096313,-26.42355155944824,-0.0203257203102111,3.279824733734131,-0.154986172914505,-13.073371887207031,L,False,True,3,L,100,,0.377,LeftResponse,correct,True,15.0
122,134,1705.5296666666666,11127,1705.415,1705.422,1705.429,0.5277051391960637,45.501327731655145,-0.5183181464672089,-45.341434478759766,-0.3430054485797882,-31.944564819335938,-0.099090932868421,-3.8111867904663086,-0.0965500669553875,-3.048938035964966,L,False,True,3,L,100,,0.382,LeftResponse,correct,True,14.0
123,135,1708.5936666666666,11131,1708.582,1708.589,1708.595,0.5244166157227202,51.82730438875234,-0.5081552267074585,-50.49226379394531,-0.3963614404201507,-43.65523147583008,0.1295802933163941,11.687633514404297,0.2515382915735245,20.603519439697266,L,False,True,3,L,0,,0.368,RightResponse,incorrect,True,19.0
124,136,1712.8036666666665,11138,1712.779,1712.785,1712.788,0.2222561637712191,22.45879668674985,-0.218506671488285,-21.781417846679688,-0.1549873128533363,-17.369680404663086,-0.0406526364386081,-5.474247455596924,-0.027948742499575,-4.296252727508545,L,False,True,3,R,0,,0.21,RightResponse,correct,True,22.0
125,137,1716.7506666666666,11141,1716.328,1716.331,1716.334,0.1451800587614024,17.856655796884972,-0.1448239013552665,-17.785390853881836,-0.1270395368337631,-14.459410667419434,0.0101630240678787,1.5937466621398926,-0.0660600215196609,-8.315250396728516,L,False,True,3,R,400,,0.32,RightResponse,correct,True,19.0
126,138,1719.9056666666665,3443,1719.696,1719.701,1719.706,0.2799083306859622,28.584718082780547,0.2769404947757721,28.08670234680176,0.1880161836743354,23.30569267272949,0.0406526252627372,5.312556743621826,0.0203261375427246,3.8804540634155273,L,False,True,3,R,200,,0.246,LeftResponse,incorrect,True,12.0
127,139,1726.1556666666665,11155,1725.741,1725.747,1725.752,0.4488196489474093,46.48620861329274,-0.4319328218698501,-45.11049270629883,-0.2845683246850967,-34.36994552612305,0.1219553798437118,11.2254638671875,0.1168760433793068,5.866894245147705,L,False,True,3,R,400,,0.21,RightResponse,correct,True,18.0
128,141,1732.1966666666665,14754,1732.138,1732.139,1732.15,0.3135276408706294,24.09863081644865,-0.025406539440155,-14.481732368469238,-0.0940079987049102,-25.36134529113769,-0.312496542930603,-19.2619686126709,-0.2540304064750671,-27.22684860229492,L,False,True,3,R,50,,0.226,RightResponse,correct,True,11.0
129,142,1736.1386666666665,11169,1736.024,1736.031,1736.037,0.4832892798127181,48.46747689280862,-0.4827480167150497,-48.41350555419922,-0.3506267555058002,-35.84812927246094,-0.0228665769100189,-2.286656141281128,-0.1473614126443863,-17.461729049682617,L,False,True,3,R,100,,0.256,RightResponse,correct,True,13.0
130,143,1740.6976666666665,11179,1740.688,1740.691,1740.695,0.1986535554436349,24.60680981050129,-0.1854778304696083,-23.00572204589844,-0.2235817909240722,-25.56869506835937,0.0711421780288219,8.731084823608398,0.0025407075881958,0.8546006083488464,L,False,True,3,L,0,,0.383,LeftResponse,correct,True,21.0
131,144,1744.1656666666665,11186,1744.155,1744.16,1744.164,0.2852232022916725,30.853703323549404,-0.2566186743788421,-28.526002883911133,-0.2515369993634522,-25.962141036987305,-0.1244955062866211,-11.756622314453123,-0.2083312273025512,-26.537939071655277,L,False,True,3,R,0,,0.362,RightResponse,correct,True,20.0
132,145,1747.1806666666666,3499,1746.971,1746.975,1746.98,0.2886339929196729,29.971273901850097,0.2566195428371429,27.971763610839844,0.3328267335891723,35.66160202026367,0.1321211266331374,10.763721466064451,0.1600663512945175,20.18723487854004,L,False,True,3,L,200,,0.335,LeftResponse,correct,True,15.0
133,146,1750.9236666666666,11199,1750.812,1750.818,1750.823,0.3989897278040905,35.48737697290544,-0.3963600918650627,-35.38608932495117,-0.4141416950151324,-47.419620513916016,-0.045732706785202,-2.6792922019958496,-0.0228667706251144,-0.1154890656471252,L,False,True,3,R,100,,0.395,LeftResponse,incorrect,True,12.0
134,147,1755.1906666666666,3515,1755.129,1755.134,1755.137,0.2332095372971006,26.92452698417606,0.2032585442066192,22.843461990356445,0.2464558510109782,24.20668601989746,-0.1143357008695602,-14.251540184020996,-0.1372028551995754,-15.337154388427734,L,False,True,3,L,50,,0.282,LeftResponse,correct,True,10.0
135,148,1761.3446666666666,11205,1760.93,1760.934,1760.94,0.3066764189409042,34.123332653403416,-0.3048925974871963,-34.06943893432617,-0.2693216726183891,-25.19979476928711,-0.0330292284488678,-1.917071223258972,-0.0101629495620727,-4.042083740234375,L,False,True,3,L,400,,0.362,RightResponse,incorrect,True,16.0
136,149,1764.9746666666665,11213,1764.86,1764.865,1764.87,0.2748249957700263,32.30745637611588,-0.2744018658995628,-32.221439361572266,-0.2235894277691841,-24.022018432617188,0.0152444839477539,2.3559675216674805,-0.0508156269788742,-7.414463520050049,L,False,True,3,L,100,,0.289,LeftResponse,correct,True,15.0
137,151,1773.0806666666665,3544,1772.666,1772.672,1772.677,0.2297520365511732,20.9048386191636,0.2007185369729995,17.253942489624023,0.3048918135464191,28.017696380615234,0.1117947548627853,11.80312442779541,0.1016316753812134,13.11972999572754,L,False,True,3,R,400,,0.357,LeftResponse,incorrect,True,19.0
138,152,1777.4646666666665,11238,1777.351,1777.359,1777.363,0.3049790254735622,29.037137159505445,-0.2998129054903984,-26.70134162902832,-0.2515374831855297,-27.02472305297852,-0.0558965802192688,-11.410244941711426,-0.0685978531837463,-4.2960309982299805,L,False,True,3,L,100,,0.31,LeftResponse,correct,True,14.0
139,153,1781.1286666666665,3559,1780.914,1780.92,1780.922,0.1772623742506078,20.72569153396124,0.1575168967247009,14.57369899749756,0.2540736943483352,25.03763961791992,-0.0813042223453521,-14.736403465270996,-0.0813042521476745,-11.502692222595217,L,False,True,3,L,200,,0.237,LeftResponse,correct,True,14.0
140,154,1783.9766666666665,11245,1783.863,1783.868,1783.873,0.2847321967336483,29.7426918887001,-0.2337311506271362,-25.728979110717773,-0.2642421796917915,-25.22313690185547,-0.1626104949973523,-14.921372413635254,-0.068599134683609,-7.275674343109131,L,False,True,3,R,100,,0.278,RightResponse,correct,True,13.0
141,156,1794.2976666666666,11262,1794.237,1794.241,1794.248,0.2794708476003549,26.276270088915123,-0.2794592976570129,-24.042463302612305,-0.261701226234436,-25.615768432617188,0.0025407895445823,-10.601996421813965,0.1727521419525146,15.84316062927246,L,False,True,3,L,50,,0.308,LeftResponse,correct,True,12.0
142,157,1800.5096666666666,11270,1800.498,1800.504,1800.51,0.4383743798623621,45.37154624546493,-0.4344618692994118,-45.31732940673828,-0.3201369899325073,-34.23105239868164,-0.0584378391504287,2.217400312423706,-0.1626105355098843,-16.006986618041992,L,False,True,3,R,0,,0.257,RightResponse,correct,True,18.0
143,158,1804.9136666666666,11284,1804.901,1804.907,1804.912,0.3614048080381721,36.05281791962438,-0.3353797532618046,-34.50804138183594,-0.3277616649866104,-32.683807373046875,-0.1346620079129934,-10.440342903137209,-0.167688563466072,-15.452240943908691,L,False,True,3,L,0,,0.299,LeftResponse,correct,True,17.0
144,159,1808.0736666666667,11289,1808.014,1808.018,1808.022,0.2026551834500171,23.022188658294414,-0.2007187008857727,-22.52022171020508,-0.246456503868103,-27.579116821289062,-0.0279486402869224,-4.781295299530029,-0.1168756484985351,-11.641387939453123,L,False,True,3,R,50,,0.392,RightResponse,correct,True,11.0
145,160,2031.9306666666666,11366,2031.818,2031.825,2031.83,0.368725487233676,35.892857911524,-0.3684102871920913,-34.53121566772461,-0.2820266783237457,-26.30866813659668,-0.0152428746223449,-9.792466163635254,0.0711373686790466,6.928956508636475,L,False,True,4,R,100,,0.28,RightResponse,correct,True,12.0
146,161,2035.7276666666667,11373,2035.62,2035.625,2035.63,0.3525559440209405,35.944104366486314,-0.261678397655487,-27.484376907348636,-0.2972715608775615,-29.981290817260746,-0.2362627983093261,-23.16436195373535,-0.1803904175758361,-18.52412414550781,L,False,True,4,R,100,,0.297,RightResponse,correct,True,11.0
147,162,2040.0496666666666,11383,2039.841,2039.847,2039.853,0.6380462967174974,68.10554896082257,-0.6376363933086395,-68.10554504394531,-0.416683810763061,-39.24300384521485,-0.0228671529330313,0.0230980981141328,0.0508158700540661,-3.39542555809021,L,False,True,4,L,200,,0.356,LeftResponse,correct,True,13.0
148,163,2043.1216666666667,11389,2042.907,2042.914,2042.919,0.4575831735234579,46.08332688365024,-0.4547528326511383,-45.91374969482422,-0.3328428789973259,-32.845489501953125,-0.0508155673742294,-3.94976019859314,0.0406522303819656,4.088328838348389,L,False,True,4,R,200,,0.352,RightResponse,correct,True,12.0
149,164,2048.534666666667,3750,2048.471,2048.477,2048.485,0.4679247091616409,40.34358863211537,0.3912803828716278,34.39302062988281,0.47511026263237,40.79024887084961,-0.2566187744960189,-21.088510513305664,-0.0381099581718444,-1.5937055349349976,L,False,True,4,L,50,,0.282,LeftResponse,correct,True,10.0
150,165,2052.581666666667,11403,2052.171,2052.177,2052.182,0.3540682260629561,37.5514929392922,-0.3531554788351059,-36.83990859985352,-0.3379228413105011,-34.69321823120117,-0.0254070162773132,-7.275696277618408,-0.0127034783363342,4.480842590332031,L,False,True,4,R,400,,0.235,RightResponse,correct,True,22.0
151,166,2055.974666666667,11409,2055.91,2055.918,2055.924,0.5235329013379082,46.87715692606217,-0.523378774523735,-46.63273239135742,-0.4039846062660217,-41.66891860961914,-0.0127026438713073,-4.780806541442871,0.190554603934288,18.039167404174805,L,False,True,4,L,50,,0.389,RightResponse,incorrect,True,9.0
152,167,2059.663666666667,11415,2059.247,2059.253,2059.259,0.3612833084405956,34.825384040550844,-0.3531514853239059,-34.737579345703125,-0.2413734756410122,-24.899581909179688,-0.0762211084365844,-2.4714276790618896,-0.1905573680996894,-17.20795440673828,L,False,True,4,L,400,,0.281,LeftResponse,correct,True,21.0
153,168,2066.757666666667,3784,2066.545,2066.548,2066.553,0.1728477520900993,22.126062265717607,0.1727730445563793,22.104785919189453,0.1727721616625785,22.68211936950684,-0.0050813853740692,0.9700880646705629,0.0025406181812286,0.0230962056666612,L,False,True,4,R,200,,0.28,RightResponse,correct,True,11.0
154,169,2070.654666666667,3796,2070.543,2070.55,2070.556,0.4515200740714807,44.133468806224286,0.4192262850701809,42.50017166137695,0.655500914901495,67.97502899169922,0.1676892936229705,11.895313262939451,0.0711414366960525,11.826099395751951,L,False,True,4,L,100,,0.362,LeftResponse,correct,True,10.0
155,170,2075.2546666666667,11441,2075.245,2075.252,2075.259,0.5950662195307475,57.776792040557176,-0.5945235574617982,-57.60455703735352,-0.4979923367500305,-42.56964874267578,-0.0254075825214386,-4.457881450653076,-0.0050815492868423,3.8804619312286377,L,False,True,4,R,0,,0.384,RightResponse,correct,True,16.0
156,171,2078.244666666667,3820,2078.137,2078.139,2078.142,0.1147865274218939,15.608335004798002,0.1016317717730999,13.95127010345459,0.1854778379201889,24.64568519592285,-0.0533566288650035,-6.998727321624756,-0.0254078581929206,-3.811178684234619,L,False,True,4,L,100,,0.253,LeftResponse,correct,True,9.0
157,172,2082.3616666666667,3828,2082.154,2082.159,2082.165,0.3228389096514749,33.827224210146866,0.3226789012551307,33.538307189941406,0.3989022746682167,38.065528869628906,-0.0101630836725234,-4.411694526672363,-0.096548706293106,-9.285300254821776,L,False,True,4,L,200,,0.231,RightResponse,incorrect,True,10.0
158,173,2089.2816666666668,11467,2089.218,2089.224,2089.23,0.4331639297733231,43.699928663352495,-0.426851212978363,-42.84687805175781,-0.3226793110370636,-29.75027084350586,-0.073681965470314,-8.592369079589844,0.1524436473846435,9.077341079711914,L,False,True,4,R,50,,0.254,LeftResponse,incorrect,True,12.0
159,174,2092.0916666666667,3845,2092.081,2092.086,2092.09,0.3237082322586936,33.74711514086967,0.2388339675962925,24.668731689453125,0.3099761754274368,36.12540435791016,-0.2185071064159274,-23.028709411621094,-0.1041724884416908,-12.265095710754396,L,False,True,4,L,0,,0.244,RightResponse,incorrect,True,15.0
160,175,2095.0606666666667,11481,2094.947,2094.953,2094.958,0.5309188025047472,58.50056719932936,-0.5284813791513443,-58.36863708496094,-0.2566192671656608,-29.057348251342773,-0.0508154183626174,-3.926648378372192,-0.0863857865333557,-9.608704566955566,L,False,True,4,R,100,,0.265,LeftResponse,incorrect,True,8.0
161,176,2098.6786666666667,11489,2098.612,2098.619,2098.625,0.6129898721198416,56.15518825729337,-0.6072286562994123,-55.68786239624024,-0.2718569189310074,-26.954490661621094,-0.0838447511196136,-7.229602336883545,0.0152447680011391,-1.01631760597229,L,False,True,4,R,50,,0.252,RightResponse,correct,True,15.0
162,177,2104.4816666666666,11499,2104.069,2104.076,2104.081,0.3848658854388342,37.26338961590268,-0.3836563564836979,-37.2569465637207,-0.2744052335619926,-29.01119613647461,-0.0304885208606719,-0.6929202079772949,-0.0813009738922119,-15.151585578918455,L,False,True,4,L,400,,0.301,LeftResponse,correct,True,20.0
163,178,2107.462666666667,11504,2107.245,2107.25,2107.258,0.7773281290585632,72.62153787595079,-0.6072347313165665,-54.232791900634766,-0.416684627532959,-36.72527694702149,0.4852885752916336,48.297950744628906,0.726579412817955,62.14738845825195,L,False,True,4,L,200,,0.213,LeftResponse,correct,True,13.0
164,179,2111.4596666666666,11508,2111.244,2111.249,2111.254,0.4195062563420526,49.0379852083117,-0.3811178505420685,-43.63224792480469,-0.2413729950785637,-25.985132217407227,-0.1753131002187729,-22.381933212280277,-0.11687533557415,-11.849238395690918,L,False,True,4,R,200,,0.392,RightResponse,correct,True,12.0
165,180,2116.0106666666666,11516,2115.799,2115.805,2115.811,0.4650174191186274,45.68937882219884,-0.4649549466557801,-45.68727111816406,-0.4522591531276703,-46.357791900634766,-0.0076221823692321,0.4388563930988312,-0.1244970709085464,-16.584253311157227,L,False,True,4,R,200,,0.214,LeftResponse,incorrect,True,11.0
166,181,2119.9196666666667,11523,2119.508,2119.514,2119.52,0.4056750515665985,40.268183136021165,-0.4014439135789871,-39.65938949584961,-0.2972699226811528,-32.10604476928711,-0.0584382726810872,-6.975628852844238,-0.2134256870485842,-19.86430549621582,L,False,True,4,R,400,,0.256,RightResponse,correct,True,19.0
167,182,2126.2146666666667,7452,2125.803,2125.805,2125.807,0.142143778857685,21.464957339822973,-0.0584381967782974,-9.701196670532228,-0.1143353097140789,-19.3792781829834,0.1295755803585052,19.147615432739254,0.0152445882558822,2.841037511825561,L,False,True,4,R,400,,0.373,RightResponse,correct,True,18.0
168,183,2130.4286666666667,11541,2130.415,2130.419,2130.424,0.3006807930002328,32.97425557345701,-0.2998099960386753,-32.798973083496094,-0.2286683022975921,-25.01494407653809,0.022867128252983,3.3954226970672607,0.0635196566581726,6.675339698791504,L,False,True,4,L,0,,0.307,LeftResponse,correct,True,18.0
169,184,2133.679666666667,11547,2133.566,2133.572,2133.578,0.5676683819480571,57.75618393399355,-0.5589530244469643,-56.79621505737305,-0.4827456399798393,-45.11030197143555,-0.0990904048085212,-10.486502647399902,-0.1575291529297828,-16.630619049072266,L,False,True,4,L,100,,0.229,RightResponse,incorrect,True,11.0
170,185,2138.958666666667,3942,2138.549,2138.554,2138.56,0.2958245005852791,29.96497728213832,0.2947313860058784,29.75033187866211,0.3455463647842407,33.907955169677734,-0.0254075825214386,3.580169916152954,-0.0330297350883483,-2.078803300857544,L,False,True,4,R,400,,0.311,LeftResponse,incorrect,True,17.0
171,186,2142.081666666667,11564,2141.966,2141.974,2141.981,0.5663151219087176,54.39628331202925,-0.5488028228282928,-53.425201416015625,-0.4192216135561466,-38.157447814941406,-0.1397436186671257,-10.23247241973877,-0.10417240858078,-7.991945743560791,L,False,True,4,R,100,,0.221,RightResponse,correct,True,14.0
172,187,2146.6156666666666,11572,2146.549,2146.555,2146.56,0.2887676645487012,30.939376936237032,-0.2693234980106354,-28.36444664001465,-0.1956382095813751,-22.196985244750977,0.1041710972785949,12.357314109802246,0.1092523336410522,11.179255485534668,L,False,True,4,L,50,,0.317,LeftResponse,correct,True,14.0
173,188,2149.733666666667,3973,2149.522,2149.527,2149.531,0.2110230886547695,21.63796087423137,0.2108853794634342,21.435020446777344,0.2667808774858713,31.87515640258789,-0.0076223798096179,-2.9565603733062744,0.0,-0.2309748977422714,L,False,True,4,L,200,,0.238,RightResponse,incorrect,True,14.0
174,189,2153.3306666666667,11591,2152.918,2152.923,2152.927,0.2988731694161392,30.959284015746533,-0.2693217284977436,-28.733783721923828,-0.2286693379282951,-25.038143157958984,-0.1295800060033798,-11.525924682617188,-0.0635198671370744,-11.941732406616213,L,False,True,4,L,400,,0.366,LeftResponse,correct,True,20.0
175,190,2156.3616666666667,11599,2156.352,2156.356,2156.361,0.3076329016420657,34.26504188380559,-0.2642422020435333,-30.51259422302246,-0.2566187321208417,-26.42413711547852,-0.1575247943401336,-15.590852737426758,-0.1854734867811203,-17.646610260009766,L,False,True,4,L,0,,0.215,LeftResponse,correct,True,17.0
176,191,2160.770666666667,3998,2160.705,2160.71,2160.715,0.2705378398006807,26.95706202317916,0.2616967484354973,26.42380714416504,0.2718622647225857,25.63865852355957,0.0685968995094299,5.335317134857178,0.1193897724151611,15.79561710357666,L,False,True,4,L,50,,0.229,RightResponse,incorrect,True,13.0
177,192,2165.4466666666667,11614,2165.433,2165.439,2165.445,0.565494474495716,59.14767805275367,-0.5640314072370529,-58.92095565795898,-0.3709483109414577,-36.1478157043457,0.0406518429517746,5.173857688903809,-0.0813050046563148,-8.222883224487305,L,False,True,4,R,0,,0.363,RightResponse,correct,True,16.0
178,193,2169.996666666667,4023,2169.982,2169.988,2169.992,0.2838645617630968,28.73873548281381,0.2007225826382637,18.98665809631348,0.2185009568929672,22.2197208404541,-0.2007225304841995,-21.57363510131836,-0.195640598423779,-18.570838928222656,L,False,True,4,R,0,,0.252,RightResponse,correct,True,15.0
179,194,2173.494666666667,11636,2173.425,2173.431,2173.438,0.380626882521951,28.462361306119583,-0.3023538142442703,-22.636150360107425,-0.2032584547996521,-12.44970703125,-0.2312120124697685,-17.254295349121094,-0.3734766095876694,-34.2760009765625,L,False,True,4,R,50,,0.309,RightResponse,correct,True,16.0
180,195,2177.3416666666667,4042,2177.228,2177.233,2177.239,0.3049895101110104,34.2637734497747,0.304894246160984,33.884864807128906,0.2058035135269165,24.09125328063965,-0.0076223313808441,5.081545829772949,-0.0965412855148315,-1.1317059993743896,L,False,True,4,L,100,,0.238,LeftResponse,correct,True,13.0
181,196,2181.7296666666666,11647,2181.719,2181.725,2181.732,0.5334886961731848,52.46435912418156,-0.487820097245276,-49.12853240966797,-0.3836521618068218,-38.27289581298828,-0.2159669920802116,-18.409135818481445,-0.2134212851524353,-17.36944007873535,L,False,True,4,R,0,,0.391,RightResponse,correct,True,14.0
182,197,2187.125666666667,11651,2186.714,2186.72,2186.725,0.444174681432778,50.3081181677162,-0.4420695304870605,-50.25820159912109,-0.4116029217839241,-40.37487030029297,0.0431934930384159,-2.2405190467834477,0.0711410641670227,8.892618179321289,L,False,True,4,L,400,,0.204,LeftResponse,correct,True,19.0
183,198,2190.0606666666667,11658,2190.05,2190.056,2190.062,0.4419018989945006,50.270436611058095,-0.4192244885489344,-45.52576446533203,-0.3175948038697243,-35.75526428222656,0.1397430375218391,21.31951141357422,0.1880146712064743,20.626127243041992,L,False,True,4,L,0,,0.332,RightResponse,incorrect,True,13.0
184,199,2193.6946666666668,4078,2193.631,2193.638,2193.643,0.3686329651355073,37.858007418335575,0.3684139996767044,37.85775375366211,0.3811160400509834,38.065391540527344,0.012703850865364,0.1385872066020965,0.0558973662555217,7.506876468658447,L,False,True,4,R,50,,0.287,RightResponse,correct,True,15.0
185,200,2398.0466666666666,11915,2397.935,2397.942,2397.949,0.5501802152311759,48.78506871894313,-0.5411832928657532,-48.62113952636719,-0.3353673219680786,-30.118423461914062,-0.099090427160263,-3.995963096618652,-0.0076223462820053,-1.4551787376403809,L,False,True,5,R,100,,0.294,RightResponse,correct,True,12.0
186,201,2401.4816666666666,11920,2401.271,2401.277,2401.282,0.3957620345403321,41.95948704371706,-0.3811035454273224,-40.119815826416016,-0.3811127990484237,-37.62622833251953,-0.1067130528390407,-12.288162231445312,-0.2921907603740692,-28.20277404785156,L,False,True,5,R,200,,0.359,RightResponse,correct,True,17.0
187,202,2406.8686666666667,11926,2406.86,2406.862,2406.866,0.1171240372047823,14.546244166553562,-0.1168757602572441,-14.413145065307615,-0.210885158739984,-25.82364273071289,0.0076221227645874,1.9632800817489624,-0.048274740576744,-8.615537643432617,L,False,True,5,L,0,,0.338,LeftResponse,correct,True,16.0
188,203,2412.505666666667,4395,2412.094,2412.096,2412.099,0.111126875238225,14.826223499564056,0.1092521101236343,14.528444290161133,0.1829370781779289,23.19050407409668,-0.0203263089060783,-2.95655369758606,-0.0177850723266601,-2.2404558658599854,L,False,True,5,R,400,,0.343,RightResponse,correct,True,18.0
189,204,2415.719666666667,11947,2415.709,2415.716,2415.72,0.5893785964117957,54.276185000553966,-0.4243023805320263,-37.97220993041992,-0.3607916533946991,-35.73271560668945,-0.4090655446052551,-38.78163909912109,-0.3430049084126949,-32.01384735107422,L,False,True,5,R,0,,0.261,RightResponse,correct,True,15.0
190,205,2420.4866666666667,11954,2420.373,2420.377,2420.382,0.3448379816196059,38.54619258338716,-0.3429985120892524,-38.52674865722656,-0.2261271476745605,-24.737735748291016,-0.0355704128742218,-1.2241734266281128,-0.1778553649783134,-18.73255920410156,L,False,True,5,L,100,,0.279,LeftResponse,correct,True,11.0
191,206,2423.3886666666667,11962,2423.376,2423.382,2423.388,0.4969805601672971,53.54350055825728,-0.4776666760444641,-50.44612121582031,-0.4471751824021339,-43.562686920166016,-0.1372013986110687,-17.94701385498047,-0.1575286202132702,-21.111549377441406,L,False,True,5,L,0,,0.253,LeftResponse,correct,True,14.0
192,207,2429.9216666666666,4434,2429.808,2429.81,2429.812,0.1261472528232324,15.177857006311488,0.1244988813996315,14.967584609985352,0.1524475999176502,21.897016525268555,-0.0203262865543365,-2.517688274383545,0.0228660106658935,5.381591320037842,L,False,True,5,R,100,,0.37,RightResponse,correct,True,10.0
193,208,2433.376666666667,11974,2433.162,2433.167,2433.171,0.226484436383511,26.83132622862123,-0.2261278629302978,-26.67801856994629,-0.1880186647176742,-22.335880279541016,-0.0127039179205894,-2.864156484603882,-0.0609790757298469,-8.800389289855957,L,False,True,5,R,200,,0.236,RightResponse,correct,True,16.0
194,210,2442.482666666667,4458,2442.411,2442.414,2442.418,0.2005132011278478,23.859427927324813,0.1981815658509731,23.675537109375,0.1270396709442138,16.653745651245117,0.0304895192384719,2.956559419631958,0.1244964748620987,13.60451889038086,L,False,True,5,R,50,,0.349,RightResponse,correct,True,14.0
195,211,2446.0666666666666,4468,2445.962,2445.962,2445.966,0.1120544747619225,18.07608925069109,0.1117949336767196,13.789578437805176,0.1041721664369106,22.49753761291504,-0.0076222121715545,-11.687280654907228,-0.0609771907329559,-13.650642395019531,L,False,True,5,L,100,,0.311,RightResponse,incorrect,True,12.0
196,212,2450.097666666667,4484,2449.684,2449.69,2449.695,0.3785846036369889,42.24191186067766,0.3785760775208473,42.15388870239258,0.3760352432727813,40.95280838012695,-0.0025407951325178,-2.725579738616944,0.1092506051063537,10.416945457458496,L,False,True,5,L,400,,0.297,LeftResponse,correct,True,17.0
197,213,2453.719666666667,4494,2453.308,2453.31,2453.314,0.1355221914706537,16.79468069377431,0.1346620470285415,16.653743743896484,0.1219581142067909,16.191787719726562,0.0152445882558822,2.1712021827697754,0.0813039541244506,10.90211582183838,L,False,True,5,L,400,,0.333,LeftResponse,correct,True,16.0
198,214,2456.924666666667,4502,2456.711,2456.718,2456.723,0.2950041844913137,30.453270729526576,0.2769450899213552,28.78011703491211,0.2261303216218948,21.873910903930664,0.1016311272978782,9.955227851867676,0.0101630240678787,-8.222832679748535,L,False,True,5,R,200,,0.241,RightResponse,correct,True,15.0
199,215,2460.2096666666666,12041,2460.2,2460.207,2460.213,0.5428972016686149,49.45809879246059,-0.541176225990057,-49.15163040161133,-0.5462543964385986,-55.24884033203125,0.043193332850933,5.497341632843018,0.0025407373905181,0.1616837233304977,L,False,True,5,R,0,,0.369,RightResponse,correct,True,13.0
200,217,2472.5956666666666,12065,2472.578,2472.584,2472.59,0.3108184919902044,29.845033009128613,-0.3074354529380798,-29.842744827270508,-0.2439136765897274,-20.90360641479492,0.0457337647676467,-0.369562566280365,0.0863866358995437,11.525920867919922,L,False,True,5,R,0,,0.369,LeftResponse,incorrect,True,12.0
201,219,2483.237666666667,4565,2483.177,2483.182,2483.187,0.3738040867428661,40.2013099523022,0.3506261222064495,37.51097869873047,0.3531690090894699,33.86174011230469,0.1295793876051902,14.459315299987791,0.1168756484985351,9.26229476928711,L,False,True,5,R,50,,0.247,RightResponse,correct,True,12.0
202,220,2486.222666666667,4577,2486.211,2486.214,2486.218,0.1762120593399319,20.53629146061745,0.1549865156412124,18.455190658569336,0.205804131925106,24.43779754638672,-0.083844318985939,-9.008063316345217,0.0076223164796829,2.1019108295440674,L,False,True,5,R,0,,0.267,RightResponse,correct,True,15.0
203,221,2489.732666666667,4580,2489.625,2489.629,2489.634,0.2422293433373302,25.48526808735472,0.2337526530027389,24.992137908935547,0.3963623344898224,41.64580535888672,0.0635196976363658,4.989181518554688,0.0482746362686157,1.2010897397994995,L,False,True,5,R,100,,0.323,RightResponse,correct,True,15.0
204,222,2492.8216666666667,12114,2492.609,2492.614,2492.62,0.4590933217227522,50.55236965104256,-0.4243098199367523,-46.56553649902344,-0.3963623046875,-37.90394592285156,-0.1752936244010925,-19.677217483520508,-0.2515371420886367,-25.15365028381348,L,False,True,5,L,200,,0.264,LeftResponse,correct,True,14.0
205,223,2495.8946666666666,12116,2495.78,2495.785,2495.791,0.3423320661960289,36.76910203236808,-0.3226741924881935,-35.10844039916992,-0.2769423201680183,-25.86962890625,0.114335510879755,10.925395965576172,0.0736828669905662,8.1536226272583,L,False,True,5,R,100,,0.229,RightResponse,correct,True,14.0
206,224,2501.052666666667,4594,2500.842,2500.846,2500.85,0.2273744282058582,26.02090204022645,0.2159583270549774,25.106630325317383,0.3201369026210159,34.92407989501953,-0.071141630411148,-6.836991786956787,0.0152439773082733,3.4183483123779297,L,False,True,5,L,200,,0.319,LeftResponse,correct,True,13.0
207,225,2506.1406666666667,12134,2506.079,2506.085,2506.091,0.4628678188310093,47.14901910681564,-0.4624212980270386,-47.09684753417969,-0.3175899386405945,-33.30659484863281,0.0203263582661747,2.217420816421509,-0.1372009515762329,-13.165722846984863,L,False,True,5,R,50,,0.375,RightResponse,correct,True,11.0
208,226,2509.895666666667,4613,2509.485,2509.487,2509.492,0.1416703791751381,17.655968503048904,0.1194170117378234,15.660503387451172,0.1854766570031643,23.259626388549805,-0.0762238390743732,-8.153640747070312,-0.0813053175806999,-7.252806186676025,L,False,True,5,L,400,,0.277,LeftResponse,correct,True,15.0
209,227,2514.8836666666666,12147,2514.663,2514.667,2514.671,0.1843752771797741,20.10351076040494,-0.180393248796463,-19.933353424072266,-0.1092539224773645,-13.189003944396973,-0.0381119223311543,-2.6100893020629883,-0.0838461341336369,-9.655011177062988,L,False,True,5,L,200,,0.257,LeftResponse,correct,True,12.0
210,229,2525.828666666667,4646,2525.421,2525.425,2525.429,0.2388851849987602,25.60963747247312,0.2388311326503753,25.407588958740234,0.2286709621548652,24.992137908935547,-0.0050815045833587,-3.2106003761291504,-0.0076223835349082,-0.5081588625907898,L,False,True,5,R,400,,0.299,RightResponse,correct,True,14.0
211,230,2530.025666666667,4653,2529.963,2529.969,2529.975,0.3155518870464934,30.743436585968663,0.3150502890348434,30.48866844177246,0.2617004066705704,23.99884986877441,0.0177850723266601,-3.949682235717773,-0.0838461688254028,-6.028610229492188,L,False,True,5,L,50,,0.363,LeftResponse,correct,True,9.0
212,231,2533.735666666667,4663,2533.525,2533.528,2533.532,0.1679307619396278,19.77464793067536,0.165139764547348,19.562732696533203,0.238833466079086,28.80321502685547,-0.0304893255233764,-2.8872461318969727,-0.0076220035552978,-1.3627266883850098,L,False,True,5,L,200,,0.348,RightResponse,incorrect,True,11.0
213,232,2539.572666666667,12185,2539.507,2539.512,2539.518,0.3048995124048415,32.16559483567547,-0.3048889264464378,-32.05952835083008,-0.190556451678276,-21.34225845336914,-0.0025407075881958,-2.610006332397461,-0.0304894670844078,-2.6562745571136475,L,False,True,5,R,50,,0.292,LeftResponse,incorrect,True,8.0
214,233,2544.2186666666666,12193,2544.005,2544.01,2544.017,0.3607968487712278,34.14196501518661,-0.3607879024930298,-34.138519287109375,-0.2185039818286895,-23.282485961914062,0.0025407671928405,0.4850525557994842,0.025407463312149,5.150795936584473,L,False,True,5,R,200,,0.358,RightResponse,correct,True,14.0
215,234,2547.141666666667,12199,2547.127,2547.133,2547.137,0.2846798489763143,27.49988876966892,-0.2159646227955818,-20.695709228515625,-0.2540762051939964,-23.90623664855957,0.1854774868115782,18.10887908935547,0.2210384011268615,21.780561447143555,L,False,True,5,L,0,,0.217,LeftResponse,correct,True,14.0
216,236,2557.0916666666667,12213,2556.68,2556.685,2556.691,0.328551886162727,31.72109711897669,-0.3277551531791687,-31.713014602661133,-0.198179505765438,-22.91305923461914,-0.0228670388460159,0.716035783290863,-0.0812975168228149,-1.1779059171676636,L,False,True,5,L,400,,0.296,LeftResponse,correct,True,13.0
217,237,2560.5226666666667,12219,2560.112,2560.118,2560.123,0.4664876437674408,48.45409942553271,-0.4522591233253479,-46.91215133666992,-0.3658619821071625,-38.91915512084961,-0.1143346279859542,-12.126409530639648,0.0457334369421005,-2.4021620750427246,L,False,True,5,R,400,,0.345,RightResponse,correct,True,12.0
218,238,2564.2406666666666,4723,2563.826,2563.831,2563.837,0.4095833092203634,46.963474303950896,0.4014327600598335,46.54135513305664,0.3099743323400616,30.466184616088867,-0.0813032984733581,-6.282529830932617,-0.0762235075235366,-5.104671478271484,L,False,True,5,R,400,,0.289,LeftResponse,incorrect,True,11.0
219,239,2570.081666666667,12232,2569.969,2569.977,2569.982,0.4735980067468777,42.1638829211506,-0.4547957219183445,-39.2664909362793,-0.4065184332430362,-36.3091926574707,-0.1321208663284778,-15.360198974609377,-0.091467261314392,0.3926661610603332,L,False,True,5,L,100,,0.219,LeftResponse,correct,True,13.0
