,trialIndex,targetOnsetTime,Unnamed: 0,startTime,peakVelocityTime,stopTime,amplitude,peakVelocity,saccade_vec_left_x,peak_velocity_vec_left_x,saccade_vec_right_x,peak_velocity_vec_right_x,saccade_vec_left_y,peak_velocity_vec_left_y,saccade_vec_right_y,peak_velocity_vec_right_y,whichEye,otherEyeMissingData,isBinocular,blockId,arrowDirection,latency,blankDuration,fixationDurationInSec,response,result,isSaccade,blankDurationInFrameCount
0,0,265.5436666666667,11174,265.322,265.33,265.338,1.58377449972121,144.29057700330105,0.5842083096504211,60.55078506469727,0.9780635088682176,114.58120727539062,-1.4720877408981323,-130.97088623046875,-1.2676986977458,-124.34385681152344,L,False,True,0,L,200,,0.211,LeftResponse,correct,True,17.0
1,1,270.0436666666667,6916,270.031,270.038,270.043,0.8893947829808984,91.21641090765226,-0.85601806640625,-87.81771087646484,-0.6757872551679611,-77.23230743408203,0.2413631081581115,24.66745376586914,0.2032616361975669,25.361427307128903,L,False,True,0,L,0,,0.393,RightResponse,incorrect,True,17.0
2,2,276.49666666666667,6933,276.385,276.393,276.399,1.152419044286202,115.31255434276268,-1.1481521129608154,-113.75062561035156,-1.0897695124149325,-114.91207885742188,0.0990776419639587,18.915082931518555,0.0965501037426292,7.876459121704102,L,False,True,0,R,100,,0.331,RightResponse,correct,True,17.0
3,3,281.64666666666665,6943,281.435,281.441,281.447,0.8247057208335732,92.838568413356,-0.8181019127368927,-91.14200592041016,-0.7011362612247467,-78.52059936523438,0.1041575074195861,17.667329788208008,0.0177855342626571,-1.3165870904922483,L,False,True,0,L,200,,0.384,RightResponse,incorrect,True,16.0
4,4,285.4526666666667,6957,285.239,285.246,285.25,0.5066549306567036,43.51292886856733,-0.419211596250534,-38.57171630859375,-0.1930953711271286,-24.73746109008789,-0.284536212682724,-20.13945579528809,-0.1676838099956512,-23.974519729614254,L,False,True,0,R,200,,0.205,RightResponse,correct,True,19.0
5,5,291.2606666666667,6967,291.15,291.157,291.163,1.049227885215959,106.717986088339,-0.9907134771347046,-103.13690948486328,-0.8637197911739349,-88.08161163330078,0.3454937934875488,27.413618087768555,0.2413593530654907,19.58597946166992,L,False,True,0,R,100,,0.261,LeftResponse,incorrect,True,16.0
6,6,294.40366666666665,893,294.343,294.349,294.355,0.8853343493271411,96.31126022022325,0.8003293424844742,91.46632385253906,1.232233703136444,117.10453033447266,-0.3785364627838135,-30.16240119934082,-0.2921869866549968,-27.6247501373291,L,False,True,0,R,50,,0.26,RightResponse,correct,True,17.0
7,7,297.8466666666667,901,297.832,297.84,297.845,0.5656786754685539,58.00566868079293,0.5615052208304405,57.30582809448242,0.6936241984367371,76.06086730957031,-0.0685875415802002,-8.983299255371094,-0.0863870047032833,-10.440348625183104,L,False,True,0,L,0,,0.318,RightResponse,incorrect,True,20.0
8,8,301.55266666666665,912,301.44,301.446,301.449,0.3622444885555409,39.97803442917431,0.3048886731266975,31.71315574645996,0.3963464647531509,44.000274658203125,-0.1956117749214172,-24.34171295166016,-0.2794841304421425,-35.40903854370117,L,False,True,0,R,100,,0.29,RightResponse,correct,True,19.0
9,10,309.08366666666666,933,308.975,308.981,308.985,0.5309463628464681,59.47821264869886,0.482747808098793,55.59692001342773,0.7240989357233047,71.04798889160156,-0.2210398018360138,-21.133865356445312,-0.1702322103083133,-18.47835731506348,L,False,True,0,L,100,,0.358,RightResponse,incorrect,True,18.0
10,11,314.5416666666667,942,314.133,314.136,314.141,0.2830404505858875,29.32643589374144,0.2718610763549804,28.733625411987305,0.2388217449188232,32.10480117797852,0.0787619948387146,5.866737842559815,0.0228670537471771,1.4551767110824585,L,False,True,0,L,400,,0.31,RightResponse,incorrect,True,16.0
11,12,319.0676666666667,7043,319.002,319.01,319.016,0.737898587367878,72.69066807451728,-0.7367780432105064,-72.43057250976562,-0.5868029594421387,-56.00139236450195,0.0406502187252044,6.143727779388428,0.0279486961662769,2.910362720489502,L,False,True,0,L,50,,0.297,RightResponse,incorrect,True,16.0
12,13,324.1716666666667,7056,324.157,324.163,324.168,0.5850444564852608,62.0288428159266,-0.477611243724823,-52.24171829223633,-0.4115246534347534,-43.0926513671875,0.337882399559021,33.44219207763672,0.2769420444965362,19.84104347229004,L,False,True,0,L,0,,0.398,RightResponse,incorrect,True,23.0
13,15,333.0776666666667,7080,333.063,333.069,333.076,0.6853435678314838,71.90460037255598,-0.6834570616483688,-70.90992736816406,-0.5386363714933395,-58.7835693359375,-0.0508158523589372,-11.918630599975586,0.0254055261611938,-3.5106310844421387,L,False,True,0,R,0,,0.348,RightResponse,correct,True,26.0
14,16,336.29566666666665,991,336.186,336.193,336.198,0.6627317920256021,76.59332386779829,0.6605815887451172,76.26668548583984,0.8943353593349457,93.08380126953124,-0.0533422231674194,-7.066112518310547,-0.177853837609291,-12.103312492370604,L,False,True,0,L,100,,0.269,LeftResponse,correct,True,24.0
15,17,339.37266666666665,7098,339.26,339.265,339.271,0.4376096317032037,49.57065015008819,-0.4370119124650955,-49.56804656982422,-0.241358995437622,-28.8935661315918,-0.0228643417358398,0.5080507397651672,-0.0940060019493103,-12.310857772827148,L,False,True,0,R,100,,0.369,RightResponse,correct,True,23.0
16,18,342.7656666666667,7107,342.704,342.709,342.714,0.3445912159451148,39.728546288034586,-0.3430047705769539,-39.72851943969727,-0.218502327799797,-22.473861694335938,-0.0330277681350708,-0.0461875535547733,-0.0381107032299041,-1.1548677682876587,L,False,True,0,L,50,,0.307,RightResponse,incorrect,True,19.0
17,19,347.7656666666667,7116,347.754,347.759,347.763,0.3563019452112903,40.94886090380038,-0.3277570530772209,-37.07191848754883,-0.2769222259521484,-31.710803985595703,0.1397368609905243,17.392011642456055,-0.0152438879013061,-0.3926454186439514,L,False,True,0,R,0,,0.31,RightResponse,correct,True,25.0
18,20,351.4626666666667,7124,351.4,351.405,351.409,0.340058623457747,35.51234081230355,-0.2972700679674744,-34.161834716796875,-0.3556827306747436,-39.217227935791016,0.1651374399662017,9.700278282165527,0.0914682075381279,10.140037536621094,L,False,True,0,R,50,,0.203,RightResponse,correct,True,22.0
19,21,355.7886666666667,1031,355.38,355.388,355.393,0.9402038429673156,99.71204028983524,0.9375091344118118,99.13204193115234,1.110289454460144,113.22401428222656,-0.0711328983306884,-10.739145278930664,-0.2261096239089965,-28.476886749267575,L,False,True,0,L,400,,0.293,LeftResponse,correct,True,19.0
20,22,359.6686666666667,1039,359.258,359.268,359.274,0.9033148023282688,84.19326746017154,0.8994157016277313,83.52025604248047,1.0010462403297424,95.73977661132812,-0.0838392972946167,-10.624176025390623,-0.2947272658348083,-19.332841873168945,L,False,True,0,R,400,,0.207,LeftResponse,incorrect,True,18.0
21,23,363.8156666666667,7153,363.802,363.809,363.815,0.7939926775685202,85.21998544019995,-0.7926744939759374,-85.11045837402344,-0.6529291421175003,-74.11585998535156,-0.0457331240177154,4.319235324859619,0.180393248796463,14.597718238830566,L,False,True,0,R,0,,0.36,RightResponse,correct,True,24.0
22,24,367.3586666666667,1056,367.295,367.304,367.31,0.9226689752405086,95.35592277939182,0.9197224527597428,91.69490814208984,0.962935209274292,101.606689453125,-0.0736793577671051,-26.168603897094727,-0.276939332485199,-34.41509246826172,L,False,True,0,R,50,,0.25,RightResponse,correct,True,21.0
23,25,371.7056666666667,7168,371.494,371.501,371.506,0.5537300548485563,61.77092301493752,-0.5488060414791107,-61.69448852539063,-0.4039762131869793,-45.34050750732422,0.0736810863018035,3.071972608566284,0.1193991899490356,9.630534172058104,L,False,True,0,R,200,,0.343,RightResponse,correct,True,18.0
24,26,375.02366666666666,1069,375.013,375.02,375.027,0.6624705592352793,69.30340897465386,0.6529705077409744,69.08505249023438,0.7037913501262665,72.15794372558594,0.1117888987064361,5.497091770172119,0.0228610038757324,6.604239463806152,L,False,True,0,R,0,,0.242,RightResponse,correct,True,23.0
25,27,379.8946666666667,1080,379.482,379.487,379.492,0.5288021154622327,59.110937520937135,0.510695144534111,57.90653991699219,0.6250066161155701,62.477386474609375,-0.1371938288211822,-11.871628761291504,0.043192982673645,3.741836071014404,L,False,True,0,L,400,,0.315,LeftResponse,correct,True,21.0
26,28,383.1876666666667,7197,382.977,382.983,382.989,1.0195759639224382,104.29140567567887,-1.0137068033218384,-103.54305267333984,-0.7774132192134857,-88.29723358154297,0.1092413067817688,12.471308708190918,0.0533531606197357,6.282283306121826,L,False,True,0,L,200,,0.209,LeftResponse,correct,True,17.0
27,30,390.77366666666666,1106,390.711,390.715,390.718,0.3198668995600451,36.708149422097264,0.2210482126101851,26.909204483032227,0.3201326504349708,36.07850646972656,-0.2311980128288269,-24.96763801574707,-0.1803771257400512,-19.377275466918945,L,False,True,0,L,50,,0.36,LeftResponse,correct,True,20.0
28,31,394.40766666666667,11342,393.998,394.004,394.009,0.6580025142581991,65.03071693537909,0.5691320449113846,58.59954833984375,0.8155803680419922,84.83836364746094,-0.3302363157272339,-28.197288513183597,-0.2235687971115112,-22.88785171508789,L,False,True,0,R,400,,0.224,RightResponse,correct,True,20.0
29,32,397.88466666666665,7230,397.669,397.673,397.678,0.2722913134053826,30.62457026458438,-0.2718642652034759,-30.58186149597168,-0.1905536204576492,-19.933135986328125,0.015244036912918,1.6168028116226196,0.0,-1.5936338901519775,L,False,True,0,L,200,,0.32,LeftResponse,correct,True,16.0
30,33,401.6526666666667,1131,401.591,401.597,401.601,0.3819587976134549,36.43159537163973,0.3150456547737121,32.95969772338867,0.3658731430768966,39.2667350769043,-0.2159600853919983,-15.521580696105955,-0.0304846763610839,0.4157036244869232,L,False,True,0,R,50,,0.244,RightResponse,correct,True,19.0
31,34,405.79066666666665,7253,405.378,405.385,405.39,0.5271519731301271,50.86523443382595,-0.5030741691589355,-46.58875274658203,-0.6808302700519562,-65.33509826660156,0.1574978828430175,20.414705276489254,0.2007211968302726,21.06535530090332,L,False,True,0,L,400,,0.251,LeftResponse,correct,True,19.0
32,35,409.23766666666666,1151,409.024,409.033,409.039,1.240171906032371,118.11657636501356,1.23979714512825,118.02072143554688,1.504055917263031,140.20057678222656,-0.030485987663269,-4.757617473602295,-0.221043199300766,-15.821672439575195,L,False,True,0,R,200,,0.388,RightResponse,correct,True,15.0
33,36,412.8186666666667,4748,412.745,412.751,412.762,0.968263215834439,75.11988619257467,-0.1244988813996315,1.5244719982147217,-0.1676798164844513,-4.041995525360107,0.9602258503437042,75.10441589355469,0.6021272540092468,50.18938827514648,L,False,True,0,L,50,,0.383,LeftResponse,correct,True,18.0
34,37,416.3496666666667,4750,416.13,416.137,416.145,0.6501416089340104,71.29305394732322,-0.2388315945863723,-55.61880874633789,-0.2616719007492065,-50.78525924682617,0.6046846956014633,44.600982666015625,0.584368072450161,43.26214218139648,L,False,True,0,R,200,,0.22,RightResponse,correct,True,14.0
35,38,420.65366666666665,7291,420.541,420.547,420.553,0.5718710469237763,64.33710989833389,-0.5691333115100861,-62.66486358642578,-0.5792376101016998,-56.538272857666016,-0.055890679359436,-14.573214530944824,0.1117812991142273,11.66324234008789,L,False,True,0,L,100,,0.395,LeftResponse,correct,True,22.0
36,39,424.4266666666667,7302,424.011,424.016,424.021,0.3630588302380241,41.31810051205056,-0.2489950396120548,-27.347902297973636,-0.2286587357521057,-25.56812286376953,0.2642218470573425,30.97220802307129,0.1371818780899047,15.311735153198242,L,False,True,0,R,400,,0.385,LeftResponse,incorrect,True,18.0
37,40,551.8836666666667,1578,551.827,551.832,551.836,0.3933710779146661,43.1525196101598,0.345535933971405,38.24926376342773,0.330302432179451,33.5615234375,-0.188004583120346,-19.97833251953125,-0.3048945441842079,-29.311479568481445,L,False,True,1,L,50,,0.305,LeftResponse,correct,True,17.0
38,41,557.7296666666667,7730,557.717,557.724,557.73,0.8310600515235388,87.90423758339443,-0.8308114409446716,-87.86268615722656,-0.7190087949857116,-77.53642272949219,-0.0203263089060783,-2.7024741172790527,0.017785545438528,3.64949631690979,L,False,True,1,R,0,,0.341,RightResponse,correct,True,21.0
39,42,561.0976666666667,1593,560.89,560.896,560.9,0.5547557236759508,61.470642678959024,0.5411846786737442,61.27897262573242,0.520859032869339,53.7490234375,-0.1219551414251327,-4.850507736206055,-0.1854734867811203,-18.593551635742188,L,False,True,1,L,200,,0.245,LeftResponse,correct,True,13.0
40,43,564.0036666666666,7748,563.893,563.897,563.902,0.3445052527061973,37.55108890343081,-0.2642390355467796,-31.736385345458984,-0.1448249579407274,-17.161876678466797,-0.2210466042160987,-20.072023391723636,-0.2744039236567914,-30.512449264526367,L,False,True,1,L,100,,0.209,LeftResponse,correct,True,21.0
41,44,567.8716666666667,1608,567.664,567.669,567.673,0.305085132247456,33.825862358127374,0.2972723245620727,33.72321701049805,0.3125058859586715,32.17464065551758,-0.0686010420322418,-2.6331727504730225,-0.0381109416484832,-6.259433269500732,L,False,True,1,R,200,,0.332,RightResponse,correct,True,12.0
42,45,570.9106666666667,1615,570.848,570.855,570.861,0.6313371279426091,59.49678515977391,0.6072378605604172,56.05839538574219,0.7317388951778412,79.38746643066406,-0.1727679073810577,-19.932981491088867,-0.1854745596647262,-16.422548294067383,L,False,True,1,L,50,,0.39,LeftResponse,correct,True,16.0
43,46,574.5196666666667,7775,574.41,574.417,574.422,0.6378059989725573,62.113513911394925,-0.6326024979352951,-62.10481643676758,-0.5792720317840576,-59.474422454833984,-0.0813054237514734,-1.0394160747528076,-0.2007182091474533,-22.42780303955078,L,False,True,1,R,100,,0.33,RightResponse,correct,True,20.0
44,47,577.6176666666667,7784,577.605,577.611,577.616,0.5215942021704845,55.518538898065,-0.490336924791336,-53.88380813598633,-0.2566186743788421,-31.852033615112305,-0.1778488457202911,-13.373233795166016,-0.1753130480647087,-6.813894271850586,L,False,True,1,R,0,,0.263,RightResponse,correct,True,20.0
45,48,581.5356666666667,7794,581.124,581.129,581.133,0.3253849030617151,37.80032108276219,-0.3200944662094116,-37.62149429321289,-0.2667783945798874,-32.336795806884766,-0.0584368705749511,-3.67252516746521,-0.0228664875030517,-1.7092139720916748,L,False,True,1,L,400,,0.395,LeftResponse,correct,True,21.0
46,49,585.2326666666667,1640,585.119,585.129,585.135,1.0005775109832835,100.69147262327876,0.9832368642091752,98.83163452148438,1.3540404364466667,132.9318389892578,-0.1854740530252456,-19.26345443725586,-0.1727737784385681,-18.247459411621094,L,False,True,1,R,100,,0.368,RightResponse,correct,True,19.0
47,50,588.3596666666667,7816,588.152,588.157,588.162,0.4153392254888978,45.45058222417431,-0.4039619266986847,-44.73833465576172,-0.3023465126752853,-33.00615310668945,-0.0965475738048553,-8.014788627624512,-0.1626082807779312,-16.260814666748047,L,False,True,1,R,200,,0.208,RightResponse,correct,True,11.0
48,51,592.9516666666667,7825,592.837,592.846,592.851,0.6826357101451773,58.22319004202975,-0.6783668212592602,-58.04329299926758,-0.6936122179031372,-79.68572998046875,0.076223149895668,4.573400974273682,0.0914651155471801,3.095041275024414,L,False,True,1,L,100,,0.295,RightResponse,incorrect,True,18.0
49,52,596.8566666666667,11700,596.45,596.452,596.458,0.2723687700208336,32.37331356153665,0.040652111172676,15.221484184265137,0.1346618444658815,21.111629486083984,-0.26931793987751,-28.571626663208008,-0.2921904772520065,-33.538421630859375,L,False,True,1,L,400,,0.281,RightResponse,incorrect,True,20.0
50,53,601.2246666666666,7846,601.111,601.118,601.124,0.7117912151009872,76.67480638427162,-0.6935591846704483,-75.68372344970703,-0.67572882771492,-73.50777435302734,0.1600699573755264,12.288203239440918,0.2007028758525848,13.557295799255373,L,False,True,1,R,100,,0.357,RightResponse,correct,True,21.0
51,55,610.0466666666666,7856,609.983,609.987,609.992,0.2929782706914335,34.679595603239015,-0.2870912551879883,-33.88279724121094,-0.2108588814735412,-22.425498962402344,0.0584369599819183,7.391238212585449,0.0203261226415634,0.5312511920928955,L,False,True,1,R,50,,0.375,RightResponse,correct,True,14.0
52,56,613.8436666666666,1690,613.635,613.638,613.641,0.173555754117302,22.10744339551304,0.1651509217917919,20.603439331054688,0.3353826962411403,41.0913200378418,-0.0533551573753356,-8.014820098876953,-0.0482750856317579,-5.705236434936523,L,False,True,1,L,200,,0.35,RightResponse,incorrect,True,10.0
53,57,617.1196666666667,1697,617.11,617.114,617.119,0.3406592282288912,38.06293589080085,0.3150527477264404,37.41830825805664,0.3836570531129837,39.5667610168457,-0.1295780688524246,-6.975478172302246,-0.2032630778849125,-17.623855590820312,L,False,True,1,L,0,,0.258,RightResponse,incorrect,True,19.0
54,58,620.5966666666667,5041,620.48,620.481,620.484,0.1375003636691154,20.57228083205035,-0.0381119197700172,-7.922657489776611,-0.1219567656517028,-19.171276092529297,0.1321129500865936,18.98552703857422,0.101630613207817,16.561189651489258,L,False,True,1,R,100,,0.328,RightResponse,correct,True,20.0
55,59,624.2806666666667,1711,624.07,624.071,624.075,0.1196598721941276,17.234780389513073,0.1194168590009212,16.79226303100586,0.1270395496394485,13.81267261505127,0.0076222568750381,3.880406856536865,-0.1067133378237485,-10.001489639282228,L,False,True,1,R,200,,0.291,RightResponse,correct,True,13.0
56,60,627.5036666666666,7896,627.442,627.447,627.453,0.4177929843432268,38.006139284406736,-0.3150554001331329,-31.274560928344727,-0.2464555948972702,-21.689064025878903,-0.2743921875953674,-21.59556579589844,-0.2769451327621937,-26.747556686401367,L,False,True,1,L,50,,0.252,RightResponse,incorrect,True,13.0
57,61,633.6116666666667,7907,633.194,633.202,633.208,0.6760680003342571,65.05166939493354,-0.6758340150117874,-65.04261016845703,-0.5081551522016525,-52.016746520996094,-0.0177855342626571,-1.0856120586395264,0.0558970272541046,0.7160359025001526,L,False,True,1,L,400,,0.379,LeftResponse,correct,True,23.0
58,62,636.8506666666667,1739,636.736,636.742,636.748,0.4344779557914481,48.84848595157372,0.4344705268740654,48.82882308959961,0.5030719041824341,50.95414733886719,0.0025407373905181,-1.3858627080917358,-0.0635197535157203,0.1616871953010559,L,False,True,1,L,100,,0.352,LeftResponse,correct,True,19.0
59,63,639.9516666666667,11740,639.945,639.951,639.953,0.2812470173243749,34.14834367518591,0.1092533022165298,22.866918563842773,0.2185062803328037,33.353355407714844,-0.2591594117693603,-25.361652374267575,-0.2718551754951477,-15.036172866821287,L,False,True,1,L,0,,0.291,RightResponse,incorrect,True,22.0
60,64,645.3396666666666,7941,645.13,645.134,645.139,0.4122303541903996,42.28282550232508,-0.3887281119823456,-40.85929870605469,-0.4903339445590973,-50.58127212524414,0.1372017487883567,10.879110336303713,0.058437630534172,9.0774507522583,L,False,True,1,R,200,,0.313,RightResponse,correct,True,12.0
61,65,648.9036666666667,7954,648.843,648.85,648.856,0.7315575052863971,77.52661319803678,-0.70630366448313,-75.66566467285156,-0.6097159683704376,-57.66914749145508,-0.1905558109283447,-16.8843994140625,-0.0787599086761474,-8.799877166748047,L,False,True,1,R,50,,0.207,RightResponse,correct,True,16.0
62,66,652.4296666666667,1775,652.021,652.026,652.03,0.3543313474301445,38.00981578126794,0.3353802748024463,36.86417770385742,0.4039836227893829,44.463653564453125,-0.1143274903297424,-9.26166820526123,-0.1473653651773929,-15.267797470092772,L,False,True,1,R,400,,0.281,RightResponse,correct,True,22.0
63,68,660.2946666666667,7988,659.881,659.889,659.895,0.8316973614471999,83.269441127066,-0.8281971216201782,-82.82012939453125,-0.8104729577898979,-88.13800048828125,-0.0762235447764396,-8.638633728027344,-0.1930958926677703,-15.013457298278809,L,False,True,1,R,400,,0.309,RightResponse,correct,True,21.0
64,69,663.2166666666667,7994,663.19,663.198,663.204,0.8259934243129744,85.13599770873226,-0.7875733450055122,-82.05915069580078,-0.7316386997699738,-80.89901733398438,0.2489846646785736,22.681135177612305,0.1651504412293434,12.311176300048828,L,False,True,1,L,0,,0.234,LeftResponse,correct,True,25.0
65,70,666.7766666666666,8005,666.568,666.574,666.579,0.4876948764221623,52.58683888238164,-0.4624121524393558,-49.52099990844727,-0.4090654551982879,-40.16739273071289,-0.1549880439415574,-17.693111419677734,-0.1168756484985351,-6.7676920890808105,L,False,True,1,L,200,,0.386,RightResponse,incorrect,True,11.0
66,71,671.3106666666666,1814,671.296,671.302,671.303,0.1689192031844975,18.41722230958617,0.157528568059206,15.683586120605469,0.1168756112456321,18.89413452148437,0.0609790738672018,9.655009269714355,0.152446262538433,19.309890747070312,L,False,True,1,L,0,,0.281,LeftResponse,correct,True,24.0
67,73,678.5626666666667,1833,678.141,678.148,678.153,0.5930954212248097,63.171007702167394,0.5665926039218903,61.76401519775391,0.5488052517175674,54.55730819702149,0.1753140036016702,13.258304595947266,0.1854703724384308,15.890912055969238,L,False,True,1,R,400,,0.239,RightResponse,correct,True,23.0
68,74,682.1146666666667,1844,681.903,681.913,681.919,1.3014547534315244,131.40560940697117,1.298236608505249,130.7233123779297,1.4048847407102585,142.22120666503906,-0.0914668440818786,-13.373473167419434,-0.1372027294710278,-17.254236221313477,L,False,True,1,L,200,,0.349,RightResponse,incorrect,True,14.0
69,75,685.6246666666667,8059,685.513,685.519,685.524,0.4753333472702332,50.23953011695668,-0.4573335328605026,-49.475189208984375,-0.4065163433551788,-47.81178665161133,-0.1295678615570068,-8.730179786682129,-0.1753057241439819,-15.17457389831543,L,False,True,1,L,100,,0.216,RightResponse,incorrect,True,18.0
70,77,693.9756666666667,8079,693.551,693.556,693.559,0.1821554397162449,22.50552646789591,-0.1676889657974243,-19.14797592163086,-0.2642350941896438,-27.670883178710938,-0.0711408108472824,-11.825977325439451,-0.0431922674179077,-5.12763786315918,L,False,True,1,R,400,,0.303,RightResponse,correct,True,22.0
71,78,696.9156666666667,1877,696.895,696.905,696.91,0.5653740551368199,52.756729000013046,0.5615015514194965,46.88776397705078,0.6428117752075195,60.239288330078125,-0.0660592913627624,-24.182846069335938,0.022866740822792,-8.01485538482666,L,False,True,1,R,0,,0.222,RightResponse,correct,True,22.0
72,79,700.3506666666667,1888,700.29,700.298,700.304,1.149405254681311,120.49536211836212,1.14839106798172,120.47579956054688,1.07977557182312,100.95761108398438,-0.0482741594314575,-2.171177625656128,-0.1372003257274627,-11.47962760925293,L,False,True,1,R,50,,0.376,RightResponse,correct,True,18.0
73,80,820.1226666666666,8389,819.91,819.917,819.922,0.6463346401788588,62.75502701228588,-0.6453550755977631,-62.06427764892578,-0.5843768864870071,-61.62524032592773,0.0355709642171859,9.28541088104248,0.1270340979099273,4.503928661346436,L,False,True,2,L,200,,0.297,RightResponse,incorrect,True,17.0
74,81,823.4366666666667,8398,823.012,823.017,823.024,0.871607620166378,91.9982220881679,-0.8662437796592712,-91.52139282226562,-1.0747126936912537,-112.66873931884766,0.0965482145547866,9.35454559326172,0.1194170881062746,13.304509162902832,L,False,True,2,R,400,,0.233,RightResponse,correct,True,21.0
75,82,827.2456666666667,2182,827.187,827.193,827.197,0.4241309147782539,50.96158512441476,0.3937914669513702,47.74006271362305,0.5513220429420471,59.2430305480957,-0.1575287701562047,-17.831701278686523,-0.1651464402675628,-16.63007926940918,L,False,True,2,L,50,,0.248,LeftResponse,correct,True,17.0
76,83,832.8496666666666,8420,832.788,832.795,832.8,0.9378545374002384,105.576759998069,-0.9375103265047072,-105.3698959350586,-0.6834629625082016,-77.05419921875,-0.0254071056842803,-6.605852127075195,0.2438947856426239,22.03359603881836,L,False,True,2,L,50,,0.356,RightResponse,incorrect,True,16.0
77,84,837.6546666666667,8429,837.44,837.447,837.452,0.7290016200734362,75.5665789565687,-0.7266559600830078,-75.46086883544922,-0.5869054310023785,-59.914695739746094,-0.0584335327148437,-3.995638847351074,-0.0457340329885482,-2.633171796798706,L,False,True,2,L,200,,0.289,LeftResponse,correct,True,20.0
78,85,842.0046666666667,8445,841.791,841.797,841.803,0.6359226268719241,68.32639278982533,-0.6351913213729858,-68.1388931274414,-0.4446300289127975,-47.51190948486328,-0.0304888933897018,-5.05837869644165,-0.0254071652889251,-2.148066282272339,L,False,True,2,L,200,,0.293,LeftResponse,correct,True,19.0
79,86,845.5186666666667,2217,845.403,845.412,845.417,0.588159090663763,54.258384554832375,0.5614237189292908,50.021759033203125,0.6198931634426117,69.72779083251953,-0.1753126457333564,-21.01894187927246,-0.2057888507843017,-18.45384979248047,L,False,True,2,R,100,,0.335,LeftResponse,incorrect,True,21.0
80,87,849.6326666666666,8462,849.619,849.627,849.632,0.7329078792157822,79.42118760290765,-0.7291946709156036,-79.11017608642578,-0.6631211414933205,-76.05890655517578,-0.0736823678016662,-7.02175760269165,-0.205768346786499,-21.061960220336918,L,False,True,2,R,0,,0.288,RightResponse,correct,True,21.0
81,88,854.1076666666667,8475,853.995,854.0,854.005,0.3395246215842568,38.92261676463341,-0.337914302945137,-38.84984588623047,-0.3633297756314277,-39.93624877929688,0.0330286622047424,2.3789851665496826,0.0914636850357055,3.787885904312134,L,False,True,2,R,100,,0.327,RightResponse,correct,True,24.0
82,89,859.4326666666667,8483,859.02,859.027,859.032,0.7190806138230151,79.59161023279638,-0.7190087949857116,-79.06163787841797,-0.6580548137426376,-70.6098861694336,-0.0101627707481384,9.169614791870115,0.066054880619049,7.229093074798584,L,False,True,2,R,400,,0.313,RightResponse,correct,True,20.0
83,90,863.1676666666667,8497,863.158,863.165,863.171,0.7393641913850437,83.92358958711768,-0.7393598258495331,-83.84520721435547,-0.5869077853858471,-64.0491943359375,-0.0025407522916793,-3.626308917999268,-0.0203248262405395,-1.408879280090332,L,False,True,2,L,0,,0.345,RightResponse,incorrect,True,20.0
84,91,866.9026666666666,2259,866.687,866.694,866.7,0.6183178593500577,65.04919512388167,0.6071717739105225,64.3425064086914,0.5284772217273712,54.14124298095703,0.116873487830162,9.562408447265623,-0.0025404095649719,0.6697432994842529,L,False,True,2,R,200,,0.272,RightResponse,correct,True,18.0
85,92,870.5576666666667,2268,870.14,870.15,870.154,0.4833173201788368,45.605828802493775,0.4649122655391693,44.71213912963867,0.5386409908533096,59.59249114990234,-0.1321068406105041,-8.984221458435059,-0.2261265069246292,-19.84091567993164,L,False,True,2,R,400,,0.369,RightResponse,correct,True,19.0
86,93,875.6116666666667,8533,875.549,875.556,875.561,0.9022786871513224,93.07371509223174,-0.8943414688110352,-92.9918212890625,-0.7190047623589635,-81.41590118408203,0.1194159388542175,3.903538703918457,-0.0457306802272796,-2.355809211730957,L,False,True,2,R,50,,0.351,RightResponse,correct,True,19.0
87,94,879.1046666666667,2295,879.092,879.095,879.098,0.2262199844078612,26.72862861089377,0.1905332207679748,22.65614128112793,0.2337522841989994,29.842687606811523,-0.1219531595706939,-14.18163776397705,-0.0660458803176879,-8.636781692504883,L,False,True,2,L,0,,0.206,LeftResponse,correct,True,23.0
88,95,883.0226666666666,8555,882.809,882.815,882.821,0.5972908197017965,62.59811937173784,-0.589435838162899,-62.59319305419922,-0.4243082702159881,-54.534122467041016,-0.0965490341186523,-0.7853229641914368,-0.1168643236160278,-11.085875511169434,L,False,True,2,L,200,,0.237,LeftResponse,correct,True,17.0
89,96,886.1746666666667,2308,886.111,886.115,886.12,0.2947501366609319,32.44469108563379,0.2388136982917785,27.345666885375977,0.3277533650398254,33.283668518066406,-0.1727589666843414,-17.46059799194336,-0.1448187828063964,-10.601511001586914,L,False,True,2,L,50,,0.315,LeftResponse,correct,True,18.0
90,97,890.4956666666667,8574,890.384,890.391,890.397,0.7591884154066942,77.46733246137,-0.7368197441101074,-76.93911743164062,-0.5868796706199646,-68.91971588134766,-0.182930901646614,-9.031046867370604,-0.0762220025062561,-5.474105358123779,L,False,True,2,L,100,,0.246,RightResponse,incorrect,True,23.0
91,98,893.6976666666667,8583,893.687,893.693,893.698,0.5224968743688886,57.39205119237558,-0.4903673753142357,-55.227169036865234,-0.5513444244861603,-57.79063415527344,0.1803962886333465,15.614331245422363,0.0762216746807098,4.6425957679748535,L,False,True,2,R,0,,0.215,LeftResponse,incorrect,True,22.0
92,99,897.0616666666667,12053,897.002,897.003,897.007,0.1618318383867434,23.49391615619781,0.0609737038612365,11.247885704040527,0.2515378147363662,33.86177444458008,-0.1499058082699775,-20.62641906738281,-0.1702228188514709,-22.195735931396484,L,False,True,2,R,50,,0.327,RightResponse,correct,True,17.0
93,100,901.4746666666666,8603,901.361,901.369,901.375,0.6892052865957431,66.23616630518673,-0.6808936782181263,-65.43377685546875,-0.4217666797339916,-44.9715576171875,-0.1067132889293134,-10.278646469116213,-0.0813022851943969,-4.804196834564209,L,False,True,2,L,100,,0.383,LeftResponse,correct,True,26.0
94,101,904.8226666666667,2336,904.603,904.61,904.616,0.7398138602156196,78.80126321799622,0.6528230905532837,74.05684661865234,0.8409394146874547,82.87068176269531,-0.3480611443519592,-26.929956436157227,-0.2438769936561584,-19.28324317932129,L,False,True,2,R,200,,0.251,RightResponse,correct,True,16.0
95,102,909.0146666666667,8623,908.904,908.909,908.914,0.4566198683730555,53.29631411634329,-0.4420744180679321,-51.50627136230469,-0.4624220132827759,-58.368682861328125,-0.1143324673175811,-13.696755409240724,-0.1676602959632873,-21.500293731689453,L,False,True,2,R,100,,0.293,RightResponse,correct,True,25.0
96,104,916.6216666666667,2357,916.207,916.215,916.219,0.5947046208821164,60.96752067393106,0.5588972866535187,57.78290939331055,0.6021624505519867,62.01799774169922,-0.2032422423362732,-19.44669532775879,-0.2464509308338165,-23.23617553710937,L,False,True,2,L,400,,0.264,LeftResponse,correct,True,17.0
97,105,920.7176666666667,8650,920.305,920.312,920.317,0.5210062731344716,58.27414163810252,-0.520851369947195,-58.2292594909668,-0.485288456082344,-55.435150146484375,-0.0127038210630416,-2.286683797836304,0.0406491756439209,-2.101759672164917,L,False,True,2,R,400,,0.295,RightResponse,correct,True,16.0
98,106,924.2486666666666,8658,924.189,924.194,924.199,0.4448188446439886,49.89048160332776,-0.4394976496696472,-49.53886413574219,-0.3887399435043335,-43.632232666015625,0.0685975253582,5.912790775299072,0.0406527006998658,3.972878217697144,L,False,True,2,R,50,,0.281,LeftResponse,incorrect,True,16.0
99,107,929.0526666666667,8670,928.991,928.998,929.004,0.7464917803141521,74.01435989396317,-0.7342457063496113,-73.63269805908203,-0.6402733325958252,-65.96778869628906,0.1346596479415893,7.506746768951416,0.1422646641731262,10.78526496887207,L,False,True,2,R,50,,0.342,RightResponse,correct,True,19.0
100,108,933.3666666666667,8682,933.302,933.307,933.312,0.2949880221204248,34.09669734554878,-0.292173683643341,-33.559566497802734,-0.2413726598024368,-28.202470779418945,-0.0406506061553955,-6.028288841247559,-0.0965463519096374,-8.10711669921875,L,False,True,2,L,50,,0.332,LeftResponse,correct,True,18.0
101,109,937.5836666666667,2406,937.173,937.178,937.183,0.3483819567984263,42.72661177665038,0.3480482697486877,42.72638702392578,0.4751236513257026,56.220252990722656,-0.0152443349361419,-0.1385849714279174,-0.1041712462902069,-7.945617198944092,L,False,True,2,L,400,,0.324,RightResponse,incorrect,True,15.0
102,111,946.5896666666666,8716,946.176,946.181,946.186,0.4141168931718848,44.96626612245216,-0.4115839004516601,-44.59992599487305,-0.2947313860058784,-33.46913146972656,-0.0457328557968139,-5.728148937225342,-0.0304878652095794,-4.7810258865356445,L,False,True,2,L,400,,0.364,LeftResponse,correct,True,18.0
103,112,950.2826666666667,2439,950.271,950.275,950.278,0.2495660216654818,28.31257824102476,0.2413472831249237,27.668333053588867,0.2693223911337554,30.835783004760746,0.0635191947221756,6.005450248718262,0.0,-0.7159923911094666,L,False,True,2,R,0,,0.283,RightResponse,correct,True,25.0
104,113,954.9076666666667,8742,954.897,954.901,954.906,0.2516523369053791,26.48542197842688,-0.2515368843451142,-26.42407989501953,-0.236281931400299,-26.05342102050781,0.0076219737529754,-1.8015490770339968,0.0330275893211364,5.543074131011963,L,False,True,2,L,0,,0.271,LeftResponse,correct,True,24.0
105,114,958.1306666666667,2460,958.128,958.13,958.138,0.2668313417779327,25.88391285881396,0.2591605857014656,24.3916072845459,0.2921720445156097,33.720760345458984,-0.0635197274386882,-8.66178035736084,-0.1600699797272682,-14.459423065185549,L,False,True,2,L,0,,0.24,LeftResponse,correct,True,23.0
106,115,962.6306666666667,8765,962.616,962.622,962.628,0.725963030451598,77.77739969551624,-0.7063314318656921,-75.6456527709961,-0.5360530018806458,-62.54354095458984,-0.1676849126815796,-18.084775924682617,-0.0381118431687355,-8.86964225769043,L,False,True,2,R,0,,0.292,NoResponse,incorrect,True,22.0
107,116,968.8346666666666,2491,968.72,968.724,968.73,0.2587329015089135,27.60084306841019,0.2566159293055534,27.16299819946289,0.312516987323761,28.087257385253903,0.0330299735069274,4.896740436553955,0.0508102178573608,4.52673864364624,L,False,True,2,L,100,,0.308,LeftResponse,correct,True,23.0
108,117,971.8776666666666,2501,971.666,971.67,971.676,0.2958203981987319,32.44884110418985,0.2947272658348083,32.40619659423828,0.2591575384140014,30.6276969909668,0.0254076123237609,1.6630427837371826,-0.038109928369522,-3.4876277446746826,L,False,True,2,R,200,,0.239,LeftResponse,incorrect,True,15.0
109,119,980.8536666666666,8817,980.64,980.648,980.655,0.8919205436469511,81.74430861247424,-0.8917902559041977,-81.18849182128906,-0.7672815211117268,-75.41175079345703,0.0152445286512374,9.516343116760254,0.1626031994819641,4.319159507751465,L,False,True,2,R,200,,0.383,RightResponse,correct,True,18.0
110,120,1457.8316666666665,8963,1457.42,1457.427,1457.432,0.5439416562082637,51.4759202124459,-0.5157756060361862,-49.383277893066406,-0.376035138964653,-43.56291198730469,-0.1727658808231353,-14.52798080444336,-0.2108790129423141,-21.11100959777832,L,False,True,3,L,400,,0.289,LeftResponse,correct,True,17.0
111,121,1460.7666666666667,2677,1460.755,1460.76,1460.765,0.4276852370168032,47.3456188953437,0.3912339806556701,45.820899963378906,0.558929517865181,61.736602783203125,-0.1727733612060547,-11.918588638305664,-0.162602037191391,-12.495402336120604,L,False,True,3,R,0,,0.283,RightResponse,correct,True,25.0
112,122,1465.0766666666666,8983,1464.862,1464.869,1464.874,0.6019935277038151,62.797449742312125,-0.5919980555772781,-62.572364807128906,-0.6148658990859985,-66.17568969726562,0.1092451810836792,5.312142372131348,0.1295800060033798,13.373787879943848,L,False,True,3,R,200,,0.382,RightResponse,correct,True,17.0
113,123,1468.2026666666666,12262,1468.078,1468.085,1468.092,0.5873545440341308,47.90753286936567,0.1956404596567154,21.89694023132324,0.3760342337191105,34.877830505371094,-0.5538142025470734,-42.61051177978516,-0.6452577412128448,-55.3796272277832,L,False,True,3,R,100,,0.211,RightResponse,correct,True,21.0
114,124,1473.3656666666666,8993,1473.153,1473.161,1473.167,0.9452647176274208,97.91098619588846,-0.9451417922973632,-97.86278533935548,-0.7622269988059998,-79.50287628173828,-0.0152439773082733,-3.071882724761963,0.0,-3.811185598373413,L,False,True,3,L,200,,0.341,LeftResponse,correct,True,16.0
115,125,1477.2836666666665,9003,1477.17,1477.178,1477.184,1.1293333475026055,108.89019781382852,-1.128072440624237,-108.8819580078125,-0.89686518907547,-93.03627014160156,-0.0533514618873596,-1.3395522832870483,-0.0050809979438781,0.2771261036396026,L,False,True,3,L,100,,0.27,LeftResponse,correct,True,20.0
116,126,1480.5926666666667,2712,1480.58,1480.587,1480.593,0.7126915437123089,72.64717554759643,0.7113815490156412,72.52410888671875,0.8206048309803009,76.84181213378906,0.0431917607784271,4.2267889976501465,0.0990860760211944,12.241403579711914,L,False,True,3,R,0,,0.356,RightResponse,correct,True,24.0
117,127,1484.7856666666667,9024,1484.574,1484.58,1484.585,0.9881847587922749,110.49486166482896,-0.9858008921146392,-110.4067611694336,-0.8918009400367737,-96.6180419921875,0.0685982406139373,4.411523818969727,0.0533536970615386,3.25666618347168,L,False,True,3,L,200,,0.315,RightResponse,incorrect,True,15.0
118,128,1488.0246666666665,12275,1487.964,1487.967,1487.969,0.1898606842550689,25.503980125048024,0.050814151763916,9.654653549194336,0.1422824710607528,21.850563049316406,-0.1829344183206558,-23.605945587158203,-0.1092512458562851,-14.805499076843262,L,False,True,3,R,50,,0.353,RightResponse,correct,True,17.0
119,129,1491.1226666666666,2732,1491.009,1491.013,1491.021,0.4300125237002889,42.65945169635181,0.4116024551913142,38.850379943847656,0.3709390014410019,33.813987731933594,0.1244756579399108,17.620351791381836,0.0355663299560546,7.274881839752197,L,False,True,3,R,100,,0.294,RightResponse,correct,True,19.0
120,130,1494.7446666666665,9049,1494.684,1494.69,1494.694,0.4219925802898665,46.65548696402916,-0.4192222580313682,-46.42621994018555,-0.4166803508996963,-46.65711975097656,0.0482745915651321,4.619585037231445,0.058438055217266,4.712003707885742,L,False,True,3,L,50,,0.348,RightResponse,incorrect,True,16.0
121,131,1498.5376666666666,2747,1498.523,1498.53,1498.536,0.7841872082035989,76.91499094592663,0.7697267830371857,74.82508850097656,1.0009207427501678,96.2142562866211,-0.1499008238315582,-17.807918548583984,-0.1600580811500549,-4.064948081970215,L,False,True,3,L,0,,0.323,LeftResponse,correct,True,23.0
122,132,1505.5566666666666,9068,1505.496,1505.506,1505.511,1.0926534746355878,109.60573888360248,-1.0925087332725525,-109.41341400146484,-1.1712570190429688,-112.92185974121094,-0.0177843570709228,6.49021053314209,0.0228658616542816,-0.7390958666801453,L,False,True,3,R,50,,0.294,RightResponse,correct,True,19.0
123,133,1508.4586666666667,9073,1508.44,1508.445,1508.451,0.7927475517468829,92.24073952577524,-0.7926009893417358,-92.12500762939452,-1.0898125171661377,-118.19367218017578,0.015243113040924,4.619198799133301,0.0254066288471221,3.164303541183472,L,False,True,3,R,0,,0.38,RightResponse,correct,True,22.0
124,134,1511.4606666666666,5510,1511.389,1511.391,1511.394,0.1763611045634466,23.28664333386728,0.0355706363916397,6.028530120849609,-0.0355682671070098,-4.08804178237915,0.1727367043495178,22.49276733398437,0.0355701148509979,7.783880233764648,L,False,True,3,L,50,,0.263,LeftResponse,correct,True,18.0
125,135,1516.1236666666666,2771,1516.01,1516.013,1516.017,0.1891003788441687,22.93051201437871,0.1880048811435699,22.88859748840332,0.26932293176651,30.166051864624023,0.0203253030776977,1.3858160972595217,0.0304892212152481,4.0421319007873535,L,False,True,3,L,100,,0.391,LeftResponse,correct,True,18.0
126,136,1519.5956666666666,9096,1519.482,1519.489,1519.495,0.7755625981595943,72.60984385982285,-0.7698444873094559,-72.31919860839844,-0.7444416582584381,-78.00140380859375,-0.0940043032169342,-6.490218639373779,-0.045731633901596,-7.321640968322754,L,False,True,3,L,100,,0.335,RightResponse,incorrect,True,17.0
127,137,1522.9636666666665,9103,1522.848,1522.854,1522.858,0.3638149267034978,39.8129582703713,-0.3582272231578827,-39.31044006347656,-0.2134047150611877,-26.652536392211918,-0.0635181665420532,-6.305628299713135,-0.1117856204509735,-10.48569107055664,L,False,True,3,L,100,,0.36,LeftResponse,correct,True,20.0
128,139,1530.2036666666665,9122,1529.99,1529.998,1530.004,0.6519636512197948,61.771722642085216,-0.6326479613780975,-61.20952987670898,-0.459865540266037,-51.11416244506836,-0.1575219333171844,-8.314996719360352,-0.0609752833843231,-6.420886516571045,L,False,True,3,R,200,,0.36,RightResponse,correct,True,18.0
129,140,1533.2846666666665,9127,1533.07,1533.079,1533.083,0.700241676066294,67.79176844831153,-0.566559910774231,-51.85310745239258,-0.3226489722728729,-36.12226867675781,-0.4115194678306579,-43.66897201538086,-0.4343277812004089,-35.76765441894531,L,False,True,3,R,200,,0.226,RightResponse,correct,True,17.0
130,141,1538.5056666666665,9137,1538.093,1538.098,1538.104,0.5231908646904352,59.704708558868006,-0.5132253617048264,-58.76006317138672,-0.3379185646772384,-37.78779220581055,0.1016287803649902,10.578619956970217,0.066057413816452,11.109715461730955,L,False,True,3,L,400,,0.27,LeftResponse,correct,True,16.0
131,142,1541.7496666666666,9148,1541.34,1541.347,1541.354,0.879021409184313,96.90097540911025,-0.8739804029464722,-96.22140502929688,-0.7824860960245132,-75.77859497070312,-0.09400475025177,-11.456013679504396,-0.0279460549354553,2.8639285564422607,L,False,True,3,L,400,,0.264,LeftResponse,correct,True,15.0
132,143,1545.4706666666666,2839,1545.458,1545.465,1545.47,0.7020174950614174,74.48060999824189,0.6908916234970093,72.76077270507812,0.8510217666625977,82.74651336669922,-0.1244882643222808,-15.913240432739258,-0.2312007546424865,-20.810266494750977,L,False,True,3,L,0,,0.29,LeftResponse,correct,True,21.0
133,144,1548.4266666666665,12330,1548.358,1548.36,1548.362,0.161350747425066,23.82466141635359,0.0889168381690979,11.686182975769045,0.1448099613189697,21.502065658569336,-0.1346397399902343,-20.76168632507324,-0.1321139633655548,-21.36455535888672,L,False,True,3,L,50,,0.213,LeftResponse,correct,True,20.0
134,145,1552.0616666666665,9176,1551.652,1551.66,1551.666,1.066767194831747,108.96707667611425,-1.064559817314148,-108.88237762451172,-0.8816229701042175,-93.52108001708984,-0.0685904026031494,-4.29553747177124,-0.0787618160247802,-10.047313690185549,L,False,True,3,R,400,,0.289,RightResponse,correct,True,14.0
135,146,1555.5256666666667,9186,1555.413,1555.42,1555.426,0.6204035602152143,61.14421861003037,-0.609780564904213,-60.631961822509766,-0.4852790953591466,-51.25374984741211,-0.1143164038658142,-7.898143768310547,-0.1295793354511261,-4.457915306091309,L,False,True,3,R,100,,0.231,LeftResponse,incorrect,True,19.0
136,147,1559.1766666666665,9195,1558.764,1558.771,1558.777,0.7142636444505635,69.05740806810077,-0.7037776410579681,-68.04554748535156,-0.3963594362139702,-41.714839935302734,-0.1219409108161926,-11.77833080291748,-0.1880066990852356,-22.057098388671875,L,False,True,3,R,400,,0.389,LeftResponse,incorrect,True,13.0
137,148,1562.9696666666666,2886,1562.954,1562.964,1562.97,1.035682155840129,102.0292001021404,1.028775990009308,101.8590850830078,1.3056825697422028,136.87213134765625,-0.1194047331809997,-5.88935136795044,-0.3480652868747711,-25.33663749694824,L,False,True,3,L,0,,0.377,RightResponse,incorrect,True,20.0
138,149,1565.9756666666665,9220,1565.953,1565.959,1565.962,0.3111924794416744,34.57206753461589,-0.2311895191669464,-24.41249084472656,-0.1473659984767437,-12.03411865234375,-0.2083078622817993,-24.47974967956543,-0.2870887517929077,-25.614219665527344,L,False,True,3,L,0,,0.247,LeftResponse,correct,True,23.0
139,150,1569.9436666666666,9226,1569.829,1569.836,1569.841,0.6401422975696297,71.06114308885009,-0.6376977860927582,-70.58390808105469,-0.4497006833553314,-55.063514709472656,-0.0558900237083435,-8.22179889678955,-0.0076216459274291,-0.4388177394866943,L,False,True,3,R,100,,0.353,RightResponse,correct,True,22.0
140,151,1573.1906666666666,9234,1572.977,1572.984,1572.99,0.7733294236173306,75.37368591488783,-0.7723899781703949,-75.276123046875,-0.5589686930179596,-54.695919036865234,-0.0381066799163818,-3.833774566650391,0.03302963078022,3.210577964782715,L,False,True,3,R,200,,0.29,LeftResponse,incorrect,True,16.0
141,152,1576.0136666666665,9241,1575.948,1575.955,1575.961,0.7796504762286468,78.02662707460206,-0.7596850693225861,-78.02449035644531,-0.591991662979126,-71.1407470703125,-0.1753096133470535,0.5774402618408203,-0.0330279171466827,2.471322774887085,L,False,True,3,R,50,,0.299,RightResponse,correct,True,19.0
142,153,1579.6816666666666,2916,1579.469,1579.476,1579.482,0.5864272221610517,56.35554273857972,0.5792507380247116,54.53007125854492,0.830682784318924,81.91580200195312,-0.0914629399776458,-14.227386474609377,-0.099087655544281,-3.695542812347412,L,False,True,3,L,200,,0.307,LeftResponse,correct,True,19.0
143,154,1583.1956666666665,9262,1582.775,1582.779,1582.783,0.2788852886393625,32.295350053894765,-0.2769226729869842,-32.219146728515625,-0.1244888603687286,-15.03566551208496,0.0330278277397155,2.217254877090454,0.0482748746871948,7.021797180175781,L,False,True,3,L,400,,0.27,LeftResponse,correct,True,16.0
144,155,1587.0096666666666,2935,1586.797,1586.804,1586.808,0.605655354134788,61.75040701799778,0.5994633436203003,60.869388580322266,0.652897983789444,70.55509948730469,0.0863834917545318,10.393762588500977,0.1016310304403305,12.172625541687012,L,False,True,3,L,200,,0.384,RightResponse,incorrect,True,18.0
145,156,1590.9266666666665,9287,1590.913,1590.921,1590.927,1.0138843099434494,101.06654146877096,-1.0112041532993317,-100.79766845703124,-0.8003369271755219,-87.56391906738281,-0.0736719369888305,-7.367213726043701,-0.0457327663898468,-1.7553969621658323,L,False,True,3,R,0,,0.279,LeftResponse,incorrect,True,22.0
146,157,1594.9446666666665,2947,1594.531,1594.541,1594.548,1.6450022774427555,154.0084526753642,1.617920696735382,150.98377990722656,1.9376651644706728,187.51060485839844,-0.2972626984119415,-30.372713088989254,-0.4547987282276153,-33.168609619140625,L,False,True,3,R,400,,0.309,RightResponse,correct,True,15.0
147,158,1597.9126666666666,12372,1597.849,1597.855,1597.861,0.5212575468714926,46.24414166791474,0.0762208402156829,8.915492057800293,0.2413666993379593,26.492595672607425,-0.5156547427177429,-45.3765869140625,-0.5995581746101379,-61.80392837524414,L,False,True,3,R,50,,0.26,RightResponse,correct,True,18.0
148,159,1602.4926666666665,9318,1602.083,1602.086,1602.091,0.3554610805382269,42.13504934605549,-0.3506259769201278,-40.76778030395508,-0.5335623323917389,-59.1308708190918,0.058429479598999,10.646617889404297,0.1524305939674377,15.566428184509276,L,False,True,3,R,400,,0.366,RightResponse,correct,True,14.0
149,160,1693.4046666666666,12472,1693.379,1693.385,1693.39,0.4262091050587969,42.2585809715403,0.0406503677368164,-1.8246595859527588,0.1473611295223236,12.564969062805176,-0.4242661297321319,-42.21916961669922,-0.4522474035620689,-45.64082336425781,L,False,True,4,R,0,,0.225,RightResponse,correct,True,25.0
150,161,1696.8976666666665,9481,1696.486,1696.492,1696.498,0.5696294986598684,59.32453499130922,-0.5564215406775475,-58.89923095703125,-0.45733742415905,-53.37910079956055,-0.1219542324542999,-7.090912818908691,-0.1448184251785278,-11.294489860534668,L,False,True,4,L,400,,0.326,LeftResponse,correct,True,13.0
151,162,1700.0906666666665,9492,1699.869,1699.873,1699.877,0.3331846354797519,37.90129337214557,-0.2515373127534985,-29.634765625,-0.1524468846619129,-18.08574104309082,-0.218497097492218,-23.62813377380371,-0.1168703436851501,-11.502239227294922,L,False,True,4,R,200,,0.257,RightResponse,correct,True,21.0
152,163,1703.0426666666665,3145,1702.824,1702.831,1702.837,0.6924167303867125,69.55992491780913,0.6656807959079742,66.54522705078125,0.6885345280170441,64.28074645996094,0.1905518472194671,20.256256103515625,0.0812948942184448,10.184823989868164,L,False,True,4,R,200,,0.251,RightResponse,correct,True,20.0
153,164,1705.9486666666667,9506,1705.875,1705.88,1705.886,0.504484792291006,51.33159230403509,-0.5030431747436523,-51.2974853515625,-0.4624174647033214,-54.92633056640625,0.0381112843751907,1.8709262609481807,0.0406517684459686,1.894020676612854,L,False,True,4,L,50,,0.287,RightResponse,incorrect,True,17.0
154,165,1708.9006666666667,9513,1708.838,1708.843,1708.85,1.0620905973178072,109.32413351103597,-1.061941683292389,-109.1972198486328,-1.2956995964050293,-126.63558197021484,-0.0177847743034362,-5.2662458419799805,-0.0279465615749359,-3.141155481338501,L,False,True,4,R,50,,0.257,RightResponse,correct,True,20.0
155,166,1712.1226666666666,3171,1711.714,1711.717,1711.721,0.3024558471471122,33.58011620867509,0.2972459197044372,32.4499626159668,0.3175937682390213,36.70237731933594,-0.0558963567018508,-8.63852596282959,-0.0254063606262207,-1.616767168045044,L,False,True,4,R,400,,0.222,RightResponse,correct,True,12.0
156,167,1715.0956666666666,9531,1714.879,1714.883,1714.891,0.6692497193776372,65.08177963980607,-0.662969708442688,-64.63388061523438,-0.8154277801513672,-91.28762817382812,-0.0914677679538726,-7.622303962707519,0.0254058241844177,4.642354965209961,L,False,True,4,L,200,,0.317,RightResponse,incorrect,True,19.0
157,168,1718.2056666666665,3187,1718.093,1718.1,1718.106,0.7525523091266173,79.58975861561757,0.7036777436733246,75.5640640258789,0.696133803576231,72.15449523925781,-0.2667819540947675,-24.992036819458008,-0.1397365629673004,-11.20191478729248,L,False,True,4,R,100,,0.353,RightResponse,correct,True,21.0
158,169,1721.2326666666665,9549,1721.117,1721.123,1721.128,0.5742383319825991,59.81682608196894,-0.5360929882153869,-57.09723281860352,-0.4471753761172294,-45.618446350097656,0.2058008015155792,17.831396102905273,0.010162353515625,0.3464468717575073,L,False,True,4,L,100,,0.279,LeftResponse,correct,True,20.0
159,170,1724.5966666666666,9559,1724.188,1724.195,1724.201,1.0035620464898158,100.79915920321676,-0.993424654006958,-99.11248016357422,-0.7952556908130646,-80.01097106933594,-0.1422822475433349,-18.362646102905277,-0.0889251828193664,-19.97937393188477,L,False,True,4,R,400,,0.277,RightResponse,correct,True,11.0
160,171,1728.2726666666665,9569,1728.203,1728.208,1728.212,0.2606625445761218,26.896379980553903,-0.2566194012761116,-26.51659393310547,-0.1346547305583953,-15.105335235595703,0.0457323193550109,4.503942966461182,-0.0025405287742614,-1.1779063940048218,L,False,True,4,L,50,,0.345,LeftResponse,correct,True,19.0
161,172,1731.2286666666666,3230,1731.016,1731.022,1731.027,0.5860023015009591,72.77698543330017,0.5004630088806152,60.46166229248047,0.6376598179340363,64.8053970336914,-0.3048532009124756,-40.50774002075195,-0.1955267190933227,-18.12082290649414,L,False,True,4,L,200,,0.255,LeftResponse,correct,True,22.0
162,174,1737.5616666666665,9600,1737.499,1737.503,1737.51,0.2772173865483358,25.51224514707957,-0.2769261598587036,-24.828521728515625,-0.297271329909563,-24.691699981689453,-0.0127035975456237,-5.866784572601318,-0.0254045724868774,-3.67213773727417,L,False,True,4,R,50,,0.241,RightResponse,correct,True,17.0
163,175,1740.7716666666665,3250,1740.658,1740.665,1740.67,0.5204053615374825,50.3380896983462,0.4852621406316757,46.40124130249024,0.6453002095222473,60.51152801513672,-0.1879957318305969,-19.515329360961918,-0.1575117707252502,-13.9727783203125,L,False,True,4,L,100,,0.344,LeftResponse,correct,True,19.0
164,176,1743.8816666666667,3258,1743.667,1743.67,1743.675,0.1778671715714405,20.55952206345193,0.1778490245342254,19.979171752929688,0.1702256500720977,19.12442398071289,-0.0025407075881958,4.850427150726318,0.0254040360450744,4.4110612869262695,L,False,True,4,L,200,,0.291,LeftResponse,correct,True,21.0
165,177,1747.1956666666665,9621,1747.185,1747.19,1747.195,0.5483910439268342,63.15584460986331,-0.5462624505162239,-62.17936325073242,-0.4573386013507843,-50.21482849121094,0.0482708215713501,11.062888145446776,-0.0304890125989913,-0.7160312533378601,L,False,True,4,R,0,,0.343,RightResponse,correct,True,24.0
166,178,1750.4966666666667,3274,1750.286,1750.291,1750.296,0.5532009582645838,61.62381369436397,0.4547410905361175,54.01934051513672,0.5310183987021446,53.14821243286133,-0.3150267302989959,-29.654767990112305,-0.254055768251419,-21.91767692565918,L,False,True,4,L,200,,0.235,LeftResponse,correct,True,20.0
167,179,1753.8316666666665,9641,1753.819,1753.825,1753.831,0.4639852325910357,47.34034285742713,-0.4624173194169998,-45.36406326293945,-0.3861991167068481,-45.34147644042969,0.0381119241937994,13.535502433776855,-0.0762214064598083,-4.896656513214111,L,False,True,4,L,0,,0.337,LeftResponse,correct,True,23.0
168,180,1758.9486666666667,9651,1758.937,1758.944,1758.95,0.7904679733447718,84.58589551798768,-0.7901371717453003,-84.0035171508789,-0.5970807671546936,-64.3047103881836,0.022866278886795,-9.908724784851074,-0.1270116567611694,-5.3345489501953125,L,False,True,4,L,0,,0.298,LeftResponse,correct,True,22.0
169,181,1762.8786666666665,9664,1762.666,1762.673,1762.678,0.5802288732701362,59.66140661646175,-0.5767417191527784,-59.660762786865234,-0.4243099391460418,-44.92565536499024,0.0635179877281189,-0.2771698832511902,0.0940001606941223,8.222188949584961,L,False,True,4,R,200,,0.308,RightResponse,correct,True,19.0
170,182,1766.1886666666664,9671,1765.774,1765.778,1765.784,0.3057126400875558,30.37674468658912,-0.3048563003540039,-30.115846633911133,-0.2286666482686996,-19.286386489868164,-0.0228660106658935,-3.9727067947387695,-0.0127025246620178,1.1316814422607422,L,False,True,4,L,400,,0.221,LeftResponse,correct,True,10.0
171,183,1769.2196666666666,3313,1769.102,1769.108,1769.114,0.560327876415265,61.33490418868865,0.5564205795526505,60.83901977539063,0.5488075017929077,59.68523788452149,-0.0660565495491027,-7.783581733703613,-0.0177841186523437,-0.2771499156951904,L,False,True,4,R,100,,0.286,LeftResponse,incorrect,True,18.0
172,184,1773.7746666666665,9689,1773.66,1773.668,1773.673,0.976283858044848,102.45556215680524,-0.9756356477737428,-102.16120910644533,-0.6275691390037537,-73.98270416259766,-0.0355704128742218,-7.76077127456665,-0.1219410300254821,-13.418240547180176,L,False,True,4,L,100,,0.334,LeftResponse,correct,True,21.0
173,185,1777.1216666666667,3325,1777.11,1777.117,1777.122,0.5253888618404671,57.76943052716529,0.5182393491268158,57.71251678466797,0.7977486699819565,83.21668243408203,-0.086379587650299,-2.563690662384033,-0.0711380541324615,-6.166745662689209,L,False,True,4,L,0,,0.333,LeftResponse,correct,True,21.0
174,186,1782.5756666666666,9707,1782.158,1782.158,1782.162,0.1350417777663329,18.38388706831682,-0.1346588432788849,-14.505263328552246,-0.0965501889586448,-7.760972499847412,0.0101625621318817,11.294451713562012,-0.0050809979438781,14.943096160888672,L,False,True,4,L,400,,0.307,LeftResponse,correct,True,9.0
175,187,1785.6856666666665,3338,1785.57,1785.574,1785.58,0.5937262445238112,68.61517431280897,0.5894494540989399,67.79131317138672,0.487801656126976,55.36253356933594,0.0711350440979003,10.600943565368652,0.0584321022033691,6.097259998321533,L,False,True,4,R,100,,0.265,RightResponse,correct,True,20.0
176,188,1790.2826666666665,9724,1790.172,1790.179,1790.184,0.640841164583915,67.03058199506874,-0.6376855373382568,-66.84119415283203,-0.6072067320346832,-58.25051498413086,0.0635181367397308,5.035244464874268,-0.0380995273590087,-9.813450813293455,L,False,True,4,R,100,,0.249,RightResponse,correct,True,19.0
177,189,1793.1256666666666,9734,1793.113,1793.121,1793.126,0.5975855715676305,55.72617178796433,-0.5029982626438141,-47.2525749206543,-0.3328325599431991,-36.10131454467773,0.3226472735404968,29.539810180664062,0.3023370206356048,27.970382690429688,L,False,True,4,R,0,,0.253,RightResponse,correct,True,20.0
178,190,1796.6356666666666,3358,1796.227,1796.232,1796.236,0.3818494237763847,45.8838409629035,0.3784534335136413,45.88102722167969,0.4166409373283386,46.306060791015625,-0.0508131980895996,-0.5081363916397095,-0.0406324863433837,-1.8700255155563357,L,False,True,4,L,400,,0.323,RightResponse,incorrect,True,8.0
179,191,1800.8156666666666,9753,1800.753,1800.76,1800.766,0.6696982336274062,67.49791694867359,-0.6681350767612457,-67.41478729248047,-0.5284808129072189,-58.20693588256836,-0.0457301139831543,-3.348917245864868,0.0076220035552978,2.771627902984619,L,False,True,4,L,50,,0.387,RightResponse,incorrect,True,16.0
180,193,1808.4136666666666,9775,1808.351,1808.358,1808.363,0.763235352739095,79.25322254099633,-0.734257347881794,-75.73600006103516,-0.6605955809354782,-72.98909759521484,-0.2083131074905395,-23.348052978515625,-0.2413217425346374,-18.31275749206543,L,False,True,4,R,50,,0.238,RightResponse,correct,True,19.0
181,194,1811.4986666666666,3387,1811.486,1811.491,1811.496,0.3535680993939329,36.19627627281304,0.3098928332328796,35.584110260009766,0.348033607006073,36.1661491394043,-0.1702258288860321,-6.628839492797852,-0.2336832284927368,-22.929134368896484,L,False,True,4,L,0,,0.358,RightResponse,incorrect,True,19.0
182,195,1815.7866666666666,9789,1815.728,1815.733,1815.738,0.5246065431411879,61.33287383600424,-0.5233992785215378,-60.97859573364258,-0.5538880228996277,-64.25849151611328,-0.0355699360370636,-6.582725524902344,0.1219474375247955,13.719072341918944,L,False,True,4,R,50,,0.247,RightResponse,correct,True,18.0
183,197,1822.7646666666665,9817,1822.652,1822.66,1822.665,0.861107937820199,86.20440544135771,-0.8587620556354523,-85.92359161376953,-0.6605847962200642,-65.78179931640625,-0.0635185986757278,-6.952404022216797,0.0101616382598876,-2.5635056495666504,L,False,True,4,L,100,,0.333,RightResponse,incorrect,True,18.0
184,198,1825.9746666666665,3422,1825.96,1825.967,1825.973,0.6093641413782663,65.36816969388377,0.6020710468292236,64.89485931396484,0.7164492309093475,72.08489227294922,-0.0939952731132507,-7.852059841156006,-0.1117780804634094,-9.653382301330566,L,False,True,4,R,0,,0.384,LeftResponse,incorrect,True,22.0
185,199,1829.1766666666665,9841,1828.964,1828.968,1828.973,0.4478631098418466,49.115051728845685,-0.3937687575817108,-42.54100799560547,-0.304865151643753,-32.4034538269043,-0.2133718132972717,-24.546913146972656,-0.101608395576477,-8.590495109558105,L,False,True,4,R,200,,0.228,RightResponse,correct,True,18.0
186,201,1924.5516666666665,10078,1924.442,1924.448,1924.454,0.9074583979494372,102.0244993663572,-0.9070279002189636,-102.02091979980467,-0.8155801296234131,-93.93848419189452,0.0279487429652363,-0.8546310067176819,-0.0076223611831665,-6.351961135864258,L,False,True,5,L,100,,0.251,LeftResponse,correct,True,21.0
187,202,1928.0156666666664,10091,1927.904,1927.909,1927.914,0.3965541984397833,44.56930048868151,-0.396350659430027,-44.55492782592773,-0.4319218844175339,-45.455692291259766,-0.0127038210630416,-1.1317917108535769,-0.0609790720045566,-6.721556663513184,L,False,True,5,R,100,,0.304,RightResponse,correct,True,20.0
188,203,1931.0256666666667,3670,1930.811,1930.816,1930.822,0.8335054547654542,83.18069244534496,0.8333660364151001,83.15235137939453,0.6681929007172585,72.2007827758789,-0.0152444243431091,2.17118763923645,-0.0152447558939456,7.2989912033081055,L,False,True,5,R,200,,0.237,LeftResponse,incorrect,True,17.0
189,204,1935.4556666666665,10108,1935.393,1935.399,1935.405,0.6188738779137618,63.06037143722221,-0.5818359106779099,-60.77072525024414,-0.4827480614185333,-59.823829650878906,-0.2108834981918335,-16.83833122253418,-0.1803960464894771,-18.547775268554688,L,False,True,5,R,50,,0.353,RightResponse,correct,True,16.0
190,205,1940.8716666666667,10119,1940.805,1940.815,1940.821,0.7973281811098449,80.181531604916,-0.7901547253131866,-79.82498931884766,-0.4674935340881347,-62.77912521362305,-0.1067133471369743,-7.553084850311279,0.0050813853740692,-0.1154874786734581,L,False,True,5,L,50,,0.277,LeftResponse,correct,True,15.0
191,206,1944.7436666666665,10131,1944.532,1944.537,1944.543,0.4027763646304289,40.77829989900853,-0.3988787829875946,-40.28054428100586,-0.3684106962755322,-41.94563674926758,-0.0558973737061023,-6.351967811584473,-0.0838462011888623,-5.127784729003906,L,False,True,5,R,200,,0.3,RightResponse,correct,True,20.0
192,207,1948.1206666666665,10139,1948.01,1948.017,1948.023,0.876394402678043,91.86225421484774,-0.8689045831561089,-91.71903228759766,-0.7825433164834976,-79.87194061279297,-0.1143327355384826,5.127656936645508,-0.0279485285282135,-4.527204036712647,L,False,True,5,R,100,,0.351,RightResponse,correct,True,19.0
193,208,1951.5256666666667,3707,1951.466,1951.47,1951.473,0.179645945752038,21.48189224761221,0.1575135290622711,18.08401870727539,0.2108611464500427,24.411836624145508,-0.0863837599754333,-11.59482479095459,-0.0813033282756805,-11.57186794281006,L,False,True,5,R,50,,0.322,LeftResponse,incorrect,True,14.0
194,209,1954.5736666666667,10159,1954.568,1954.571,1954.575,0.2250266599410242,25.94461754898902,-0.2235877551138401,-25.89273834228516,-0.0940021872520446,-10.000726699829102,-0.0254069566726684,-1.6399027109146118,-0.0609781295061111,-8.292095184326172,L,False,True,5,L,0,,0.281,LeftResponse,correct,True,25.0
195,210,1958.5206666666666,3725,1958.11,1958.117,1958.122,0.5599565740190043,52.584149539573815,0.5207675099372864,50.66786575317383,0.5309687852859497,56.0763053894043,-0.2057973891496658,-14.066277503967283,-0.3150577247142792,-28.31825828552246,L,False,True,5,L,400,,0.304,RightResponse,incorrect,True,9.0
196,211,1962.0046666666665,10181,1961.892,1961.899,1961.904,0.4634241929886463,42.16294898755736,-0.4624201729893684,-42.15381240844727,-0.4369996339082718,-46.00996398925781,-0.0304887890815734,-0.8777053952217102,-0.0635197311639785,-6.582955837249756,L,False,True,5,L,100,,0.336,RightResponse,incorrect,True,18.0
197,212,1965.8936666666666,10191,1965.685,1965.693,1965.699,1.1319868404823696,108.63938934816352,-1.1280764937400818,-108.60519409179688,-0.9832635223865508,-100.70620727539062,-0.0940086767077446,-2.7255704402923584,-0.0635197199881076,0.692940890789032,L,False,True,5,L,200,,0.243,LeftResponse,correct,True,19.0
198,213,1969.1536666666666,3744,1969.142,1969.15,1969.155,0.6119580234255384,59.072127567993626,0.6021263897418976,58.01792907714844,0.7062642127275467,74.52922821044922,-0.109253984875977,-11.110182762145996,-0.2159668728709221,-15.083056449890137,L,False,True,5,R,0,,0.305,LeftResponse,incorrect,True,24.0
199,214,1973.0376666666666,10206,1972.625,1972.632,1972.637,0.6021771074010166,67.90385009216895,-0.6021288633346558,-67.83536529541016,-0.5792962312698364,-64.39716339111328,0.0076223760843276,-3.0489461421966557,-0.0228669345378875,-4.758161067962647,L,False,True,5,L,400,,0.349,RightResponse,incorrect,True,12.0
200,215,1977.3346666666666,10220,1977.32,1977.328,1977.335,1.242773279030663,125.44204114774242,-1.2423992156982422,-125.2116470336914,-0.9934257864952089,-113.91765594482422,0.0304895376320928,7.599285125732422,0.0990893095731735,18.455141067504883,L,False,True,5,R,0,,0.315,RightResponse,correct,True,27.0
201,216,1980.3736666666666,3767,1980.253,1980.261,1980.267,0.9339457297376588,95.40100102588156,0.927230566740036,94.24508666992188,1.059311494231224,106.60017395019533,-0.1117949113249778,-14.805898666381836,-0.3023525513708591,-21.29625701904297,L,False,True,5,L,100,,0.283,LeftResponse,correct,True,21.0
202,217,1983.5176666666666,10234,1983.106,1983.113,1983.12,1.1179219910442904,103.19845129640368,-1.1128170788288116,-102.99121856689452,-1.229617476463318,-113.01236724853516,0.1067132940515875,6.536761283874512,0.0838459841907024,14.020502090454102,L,False,True,5,L,400,,0.252,RightResponse,incorrect,True,15.0
203,218,1987.1106666666665,10246,1986.699,1986.706,1986.712,0.538544093892788,50.244678119494495,-0.5055964067578316,-49.52045822143555,-0.4319255836308002,-40.30533218383789,-0.1854778006672859,-8.50011157989502,-0.2159673199057579,-14.482518196105955,L,False,True,5,R,400,,0.217,RightResponse,correct,True,18.0
204,220,1996.3906666666664,10263,1996.178,1996.184,1996.189,0.4233678313906022,44.27915086699481,-0.401380717754364,-42.88649368286133,-0.350604772567749,-45.361595153808594,-0.134661947377026,-11.017797470092772,-0.1549872756004333,-5.012261390686035,L,False,True,5,L,200,,0.317,LeftResponse,correct,True,18.0
205,221,1999.4796666666666,10276,1999.467,1999.473,1999.478,0.5693678247060673,65.43194987849286,-0.5690899789333344,-65.43194580078125,-0.6377323865890503,-66.84548950195312,-0.0177852660417556,0.0231003295630216,-0.1092519760131836,-10.16298484802246,L,False,True,5,L,0,,0.276,RightResponse,incorrect,True,26.0
206,222,2003.7676666666666,3821,2003.358,2003.362,2003.367,0.284817768073547,35.81641161041305,0.2845343053340912,35.797786712646484,0.3785557001829147,39.05687713623047,-0.0127039402723312,1.1549056768417358,-0.0381099581718444,-5.612562656402588,L,False,True,5,L,400,,0.236,LeftResponse,correct,True,17.0
207,223,2006.8866666666665,3831,2006.872,2006.882,2006.888,1.319042050680308,133.21445551329126,1.3182489573955536,133.2062530517578,1.427445501089096,141.33349609375,-0.0457342080771923,-1.4782779216766355,0.0025407948996871,-1.847847819328308,L,False,True,5,R,0,,0.309,RightResponse,correct,True,29.0
208,224,2010.3006666666665,3843,2009.893,2009.898,2009.901,0.3020047286072607,33.12101108804694,0.2210271954536438,23.442153930664062,0.2388153672218322,23.927568435668945,-0.2058004736900329,-23.398008346557617,-0.1346578896045684,-18.36244010925293,L,False,True,5,R,400,,0.259,RightResponse,correct,True,16.0
209,226,2017.1616666666666,10318,2016.95,2016.956,2016.962,0.6507564795933924,66.34667266798355,-0.6377248391509056,-66.05941772460938,-0.4192252196371555,-52.36288070678711,-0.1295801885426044,-6.167195796966553,-0.1092533022165298,-14.736475944519045,L,False,True,5,L,200,,0.276,RightResponse,incorrect,True,16.0
210,227,2020.1136666666666,10327,2019.891,2019.9,2019.906,0.7465531185730545,61.6526434931518,-0.6732205152511597,-58.847469329833984,-0.4496896117925644,-45.15400695800781,-0.3226696401834488,-18.38542366027832,-0.2159654311835765,-22.474218368530277,L,False,True,5,L,200,,0.24,LeftResponse,correct,True,19.0
211,228,2023.7066666666665,10341,2023.296,2023.3,2023.304,0.3523221934877427,35.871757695156646,-0.2946935892105102,-33.21073532104492,-0.1727496981620788,-21.10884475708008,-0.1930974274873733,-13.558394432067873,-0.0863808989524841,-6.928927898406982,L,False,True,5,R,400,,0.385,RightResponse,correct,True,15.0
212,229,2027.1326666666666,10349,2027.07,2027.074,2027.078,0.2568840835911207,29.733842788754984,-0.2540412545204162,-29.722850799560547,-0.1676848232746124,-20.64878463745117,-0.0381113290786743,-0.8084227442741394,-0.0787621438503265,-6.4903564453125,L,False,True,5,R,50,,0.316,RightResponse,correct,True,16.0
213,230,2030.1056666666666,10357,2029.995,2030.001,2030.004,0.4029328364791211,47.403339697019895,-0.3708643913269043,-40.36589813232422,-0.2718397676944732,-22.957740783691406,-0.1575261056423187,-24.85298538208008,-0.284554123878479,-29.310192108154297,L,False,True,5,R,100,,0.217,RightResponse,correct,True,20.0
214,231,2034.2276666666667,10368,2034.115,2034.12,2034.124,0.2337397151476363,27.62169556019101,-0.233725905418396,-27.5067138671875,-0.2515380084514618,-30.32777976989746,-0.0025407820940017,2.5176889896392822,0.0,-1.9863841533660889,L,False,True,5,R,100,,0.342,RightResponse,correct,True,19.0
215,232,2037.7496666666666,10378,2037.687,2037.693,2037.698,0.4446460424773441,44.92026288019687,-0.4445807039737701,-44.50444412231445,-0.3988918364048004,-46.77235412597656,-0.0076223844662308,6.097907066345215,-0.0177854150533676,-8.915812492370605,L,False,True,5,L,50,,0.283,LeftResponse,correct,True,15.0
216,233,2041.0216666666665,3914,2041.01,2041.018,2041.024,1.2105594179364874,123.49349590803716,1.2038750052452087,122.8549346923828,1.249735876917839,118.7625961303711,-0.1270396634936332,-12.54227066040039,-0.3379231840372085,-25.84675025939941,L,False,True,5,L,0,,0.248,LeftResponse,correct,True,28.0
217,234,2044.5316666666665,10398,2044.422,2044.427,2044.433,0.6765888783437215,69.32306412633318,-0.6554784923791885,-68.0880126953125,-0.4751112461090088,-49.6590461730957,-0.1676915511488914,-13.02726936340332,-0.0609790412709116,-9.909093856811523,L,False,True,5,L,100,,0.235,RightResponse,incorrect,True,18.0
218,235,2048.5196666666666,10415,2048.113,2048.116,2048.121,0.226134150269574,28.552758155780428,-0.2261198759078979,-27.716392517089844,-0.2515297383069992,-30.488473892211918,-0.0025407946668565,6.86014461517334,0.0406527006998658,3.53401255607605,L,False,True,5,R,400,,0.397,RightResponse,correct,True,14.0
219,236,2052.4126666666666,10428,2052.203,2052.209,2052.215,0.728628938574633,77.33072036956975,-0.7240784205496311,-76.79608154296875,-0.6275566034018993,-65.98951721191406,0.0813054181635379,9.077564239501951,0.1016316441819071,9.169952392578123,L,False,True,5,R,200,,0.348,RightResponse,correct,True,18.0
220,237,2055.335666666667,3954,2055.326,2055.331,2055.333,0.2631552801024662,30.88661710166672,0.2006773352622985,20.3215446472168,0.2235474586486816,22.169750213623047,-0.1702331006526947,-23.25979232788086,-0.1244910359382629,-18.869972229003903,L,False,True,5,R,0,,0.255,RightResponse,correct,True,27.0
221,238,2058.491666666667,10447,2058.478,2058.486,2058.49,0.3217300971564514,25.863442357873613,-0.3099161982536316,-25.54197120666504,-0.2642000317573547,-21.616756439208984,-0.0863840579986572,-4.065139293670654,-0.2134184092283249,-17.138242721557617,L,False,True,5,L,0,,0.273,LeftResponse,correct,True,26.0
222,239,2062.067666666667,10457,2062.009,2062.016,2062.022,0.7448250518237868,71.1842080335904,-0.744391568005085,-71.18336486816406,-0.6148648262023926,-61.6253662109375,-0.0254077017307281,0.3464670479297638,0.1778548248112201,12.426753044128418,L,False,True,5,R,50,,0.264,RightResponse,correct,True,14.0
