,trialIndex,targetOnsetTime,Unnamed: 0,startTime,peakVelocityTime,stopTime,amplitude,peakVelocity,saccade_vec_left_x,peak_velocity_vec_left_x,saccade_vec_right_x,peak_velocity_vec_right_x,saccade_vec_left_y,peak_velocity_vec_left_y,saccade_vec_right_y,peak_velocity_vec_right_y,whichEye,otherEyeMissingData,isBinocular,blockId,arrowDirection,latency,blankDuration,fixationDurationInSec,response,result,isSaccade,blankDurationInFrameCount
0,1,266.7316666666667,6599,266.518,266.524,266.529,0.3805025848078016,40.23194558269977,-0.3759886026382446,-40.02368927001953,-0.3785590529441833,-43.26045227050781,0.0584361851215362,4.088244438171387,0.0813021659851074,5.520199298858643,L,False,True,0,L,200,,0.357,RightResponse,incorrect,True,9.0
1,2,271.1236666666667,6608,270.909,270.915,270.92,0.4615047429732923,46.96037656083478,-0.3885864615440368,-42.36758804321289,-0.3810694813728332,-30.370080947875977,-0.2489722669124603,-20.25498580932617,-0.3023538589477539,-31.066938400268555,L,False,True,0,R,200,,0.309,RightResponse,correct,True,12.0
2,3,274.3416666666667,6618,274.229,274.235,274.24,0.5584945757115958,62.21084232900182,-0.4522040486335754,-52.93353271484375,-0.3709465637803077,-43.00764083862305,-0.327761635184288,-32.68378829956055,-0.37347212433815,-40.8577880859375,L,False,True,0,R,100,,0.269,RightResponse,correct,True,9.0
3,4,278.2676666666667,6627,278.256,278.263,278.268,0.7972720682234069,88.60885927508451,-0.7951276898384094,-88.19578552246094,-0.6402707695960999,-68.02326202392578,-0.0584354996681213,-8.545955657958984,0.0635165274143219,7.645116329193115,L,False,True,0,L,0,,0.281,LeftResponse,correct,True,9.0
4,5,281.50666666666666,6633,281.442,281.446,281.45,0.3228604084562748,36.73220013866163,-0.312455415725708,-35.67945861816406,-0.2769181728363037,-32.28777313232422,-0.0813047140836715,-8.731022834777832,0.0076222568750381,0.7391306161880493,L,False,True,0,R,50,,0.362,RightResponse,correct,True,9.0
5,6,286.7526666666667,1078,286.343,286.347,286.352,0.2936065545207977,33.29678608620698,0.2896112203598022,32.91035842895508,0.3099744468927383,40.51387405395508,-0.0482716262340545,-5.058089733123779,-0.0431933552026748,-7.183488845825195,L,False,True,0,L,400,,0.3,RightResponse,incorrect,True,9.0
6,8,292.9186666666667,6657,292.854,292.86,292.865,0.447733896627678,51.50656804645256,-0.4293332695960998,-49.05340194702149,-0.264237530529499,-31.597633361816406,-0.1270377337932586,-15.706377983093262,-0.1422841222956776,-14.621068954467772,L,False,True,0,L,50,,0.337,RightResponse,incorrect,True,7.0
7,9,296.94466666666665,6664,296.931,296.938,296.943,0.6702171514818126,70.60352729174683,-0.6300044655799866,-67.24930572509766,-0.4674789756536484,-52.475921630859375,-0.2286600172519683,-21.503231048583984,-0.2997942268848419,-33.42063903808594,L,False,True,0,L,0,,0.244,RightResponse,incorrect,True,8.0
8,10,301.4666666666667,1109,301.406,301.412,301.417,0.2898267574002207,28.717083828340947,0.2896485207602381,28.710803985595703,0.2337524071335792,11.572161674499512,-0.0101628601551055,-0.6005315184593201,-0.0940057635307312,-11.433093070983888,L,False,True,0,R,50,,0.378,RightResponse,correct,True,10.0
9,11,305.17966666666666,6684,304.964,304.97,304.977,0.7117800322730427,74.14566482726038,-0.7037351429462433,-73.60765838623047,-0.5563870668411255,-49.72654342651367,-0.1067129932343959,-8.915842056274414,-0.0406506061553955,-4.503889083862305,L,False,True,0,R,200,,0.281,RightResponse,correct,True,11.0
10,12,308.8976666666667,6692,308.675,308.684,308.686,0.4996436680867008,44.027164729824975,-0.3633193671703338,-23.859039306640625,-0.1803882718086242,-11.109589576721191,-0.3429910093545913,-37.00185775756836,-0.2947032451629638,-43.76694488525391,L,False,True,0,L,200,,0.23,LeftResponse,correct,True,10.0
11,13,314.97266666666667,6699,314.909,314.914,314.919,0.4402431105056676,49.93440529383945,-0.4369977861642837,-49.612701416015625,-0.3760115802288055,-39.84148025512695,-0.0533566419035196,-5.659036159515381,-0.0508147180080413,-11.133098602294922,L,False,True,0,R,50,,0.313,RightResponse,correct,True,9.0
12,14,318.19466666666665,6713,318.08,318.087,318.093,0.474085602037294,44.42150521014086,-0.4674970358610153,-44.0009880065918,-0.292185865342617,-29.703813552856445,-0.0787634402513504,-6.097801208496094,-0.0863774418830871,-3.27960205078125,L,False,True,0,L,100,,0.304,LeftResponse,correct,True,8.0
13,15,324.2986666666667,1149,324.19,324.193,324.2,0.2812469489149068,33.15807685424633,0.2591589810326695,21.550317764282227,0.3226798847317695,38.31969451904297,-0.1092541478574276,-25.20003700256348,-0.1372022219002246,-12.218854904174805,L,False,True,0,L,100,,0.342,RightResponse,incorrect,True,7.0
14,16,327.54566666666665,6732,327.436,327.441,327.446,0.5103016370354283,60.43009098992178,-0.4929064214229584,-59.9387321472168,-0.475110724568367,-51.8764533996582,-0.1321023106575012,-7.690532207489014,-0.2464289367198944,-28.961864471435547,L,False,True,0,R,100,,0.295,RightResponse,correct,True,10.0
15,17,330.97266666666667,6741,330.954,330.96,330.966,0.5559177776537483,55.72619808984519,-0.5513477474451065,-54.44199752807617,-0.2972711324691772,-29.49618530273437,-0.0711353421211242,-11.894454956054688,0.0381094813346862,-13.973488807678224,L,False,True,0,L,0,,0.364,LeftResponse,correct,True,11.0
16,18,335.33166666666665,6750,334.918,334.925,334.93,0.5793013969892795,53.50596904874239,-0.579279113560915,-53.46994400024414,-0.3963360786437988,-38.66315078735352,-0.0050810575485229,-1.963112950325012,0.005081295967102,-2.794719696044922,L,False,True,0,R,400,,0.341,RightResponse,correct,True,12.0
17,19,338.40766666666667,6757,338.195,338.201,338.206,0.4941270918214246,51.60517907255186,-0.467484638094902,-45.6860580444336,-0.3988896310329437,-46.217872619628906,-0.1600615382194519,-23.99747085571289,-0.2515289485454559,-28.54803466796875,L,False,True,0,R,200,,0.263,RightResponse,correct,True,9.0
18,20,342.80466666666666,6767,342.59,342.596,342.602,0.5056281086880008,55.07119874531408,-0.5030684694647789,-54.09481048583984,-0.3988787829875946,-42.03595352172852,-0.0508123934268951,-10.324166297912598,-0.0482704639434814,-7.714033603668213,L,False,True,0,R,200,,0.221,RightResponse,correct,True,8.0
19,21,345.8066666666667,6775,345.747,345.753,345.757,0.4434625790551911,45.564206474564,-0.3887390792369842,-38.4581184387207,-0.5132029801607132,-52.243595123291016,-0.2134033441543579,-24.43501663208008,-0.2311994433403015,-24.159284591674805,L,False,True,0,L,50,,0.398,LeftResponse,correct,True,8.0
20,22,349.5996666666667,6783,349.386,349.392,349.398,0.5742039360230132,60.945985779134695,-0.5741814523935318,-60.882930755615234,-0.6046746447682381,-58.66643905639648,0.0050813257694244,2.7716286182403564,-0.0279481112957,-3.76491379737854,L,False,True,0,L,200,,0.369,RightResponse,incorrect,True,7.0
21,23,353.3256666666667,6789,353.313,353.319,353.325,0.7743630461696285,77.06631171937232,-0.7723429314792156,-76.72644805908203,-0.5995791405439377,-58.387088775634766,0.0558974370360374,7.229700565338135,0.0431927293539047,-5.543399333953857,L,False,True,0,R,0,,0.204,LeftResponse,incorrect,True,10.0
22,24,358.78766666666667,1221,358.677,358.681,358.687,0.3408053954930118,37.24904602438988,0.3404642827808857,37.21086502075195,0.414142370223999,43.60855865478516,-0.0152443349361419,1.6861062049865725,-0.0279477834701538,4.781134128570557,L,False,True,0,R,100,,0.254,LeftResponse,incorrect,True,9.0
23,25,362.1596666666667,6808,361.935,361.94,361.945,0.4380617866909539,46.88814442736074,-0.4369998946785927,-46.47172546386719,-0.3328302949666977,-34.23006820678711,0.0304831266403198,6.235127925872803,-0.1117850542068481,-12.194646835327148,L,False,True,0,L,200,,0.313,RightResponse,incorrect,True,10.0
24,26,365.7776666666667,1231,365.67,365.675,365.681,0.4435232963177682,47.90800118983327,0.4217695742845535,44.09416580200195,0.6174056679010391,61.463661193847656,0.1371981799602508,18.731821060180664,0.1143325120210647,13.766058921813965,L,False,True,0,L,100,,0.372,LeftResponse,correct,True,12.0
25,28,373.2386666666667,6826,372.818,372.823,372.826,0.338463296249364,42.04246957686983,-0.2667500972747803,-31.40937614440918,0.0177853554487228,2.633162021636963,-0.2083309590816497,-27.946741104125977,-0.256617359817028,-31.71334648132324,L,False,True,0,L,400,,0.344,LeftResponse,correct,True,11.0
26,29,376.32366666666667,1255,376.313,376.319,376.324,0.4021138687558078,42.8024837697598,0.3988906592130661,41.2982063293457,0.6351828053593636,68.29981994628906,-0.0508114695549011,-11.247700691223145,0.0101625919342041,8.361091613769531,L,False,True,0,R,0,,0.21,RightResponse,correct,True,12.0
27,30,379.3756666666667,1261,379.364,379.367,379.369,0.1520422938900174,19.763294835020204,0.149904727935791,18.963287353515625,0.2744024582207203,36.33293533325195,-0.0254053473472595,-5.566107749938965,-0.0381105244159698,-8.315047264099121,L,False,True,0,R,0,,0.391,LeftResponse,incorrect,True,11.0
28,31,382.6646666666667,6850,382.253,382.259,382.264,0.6018997237065556,69.43860601571645,-0.5665505081415176,-65.47752380371094,-0.4420596361160278,-52.590126037597656,-0.2032333612442016,-23.117393493652344,-0.2083213329315185,-14.15750503540039,L,False,True,0,L,400,,0.344,LeftResponse,correct,True,10.0
29,32,386.3496666666667,6862,386.286,386.291,386.297,0.4697259573633116,51.27143428719064,-0.4674945045262575,-51.13808441162109,-0.4014278352260589,-42.891380310058594,-0.0457314252853393,-3.6954426765441895,-0.0660538673400878,-12.564162254333496,L,False,True,0,L,50,,0.354,RightResponse,incorrect,True,7.0
30,33,390.3006666666667,6872,390.188,390.193,390.197,0.4797163489915606,55.51922480450287,-0.4573353230953216,-53.2171745300293,-0.4598697796463966,-54.44057846069336,-0.1448177397251129,-15.821398735046388,-0.0457313358783721,-4.781010150909424,L,False,True,0,L,100,,0.332,LeftResponse,correct,True,11.0
31,34,393.7646666666667,6884,393.352,393.359,393.364,0.5540966144897506,56.20551855561876,-0.5538869053125381,-56.197147369384766,-0.4928854256868362,-50.443321228027344,-0.0152431726455688,-0.9700224995613098,-0.0279444456100463,-6.21240234375,L,False,True,0,R,400,,0.385,LeftResponse,incorrect,True,9.0
32,35,399.0146666666667,6892,398.95,398.959,398.965,1.041899612637596,104.5047883714459,-1.033811330795288,-104.32404327392578,-1.0161301791667938,-99.11841583251952,-0.1295721232891082,-6.143678665161133,-0.170224517583847,-29.840883255004883,L,False,True,0,L,50,,0.309,LeftResponse,correct,True,10.0
33,36,402.2866666666667,6898,402.171,402.178,402.184,0.5919425629757353,62.21054862810304,-0.5792446732521057,-58.73259735107422,-0.510678768157959,-55.941383361816406,-0.1219491958618164,-20.50937271118164,-0.0787597596645355,-1.0624288320541382,L,False,True,0,R,100,,0.307,LeftResponse,incorrect,True,10.0
34,37,405.5636666666667,6906,405.151,405.157,405.162,0.4558197582015258,49.4503975025241,-0.4547992944717407,-49.244930267333984,-0.5030686147511005,-50.7920150756836,-0.0304836630821228,-4.503182888031006,0.0914602875709533,-1.0623887777328491,L,False,True,0,L,400,,0.204,RightResponse,incorrect,True,12.0
35,38,408.55266666666665,6912,408.54,408.545,408.55,0.4015723803465926,45.07355629857975,-0.4014437794685364,-44.97189712524414,-0.3125073313713074,-34.253501892089844,-0.0101621150970458,-3.0255489349365234,-0.1371907293796539,-14.735413551330566,L,False,True,0,R,0,,0.249,LeftResponse,incorrect,True,14.0
36,39,411.8706666666667,1328,411.461,411.466,411.471,0.3266454759331148,37.41961774786261,0.3252194710075855,37.3956298828125,0.3963554017245769,43.14649963378906,0.0304887294769287,-1.3396484851837158,0.0457307994365692,11.987126350402832,L,False,True,0,R,400,,0.284,LeftResponse,incorrect,True,15.0
37,40,570.1466666666666,7225,569.932,569.938,569.943,0.4323327456722728,47.71528260210601,-0.4293359518051147,-47.57551193237305,-0.4395411312580108,-44.92414474487305,-0.0508157797157764,-3.649501085281372,-0.1397435795515775,-15.429545402526855,L,False,True,1,R,200,,0.364,RightResponse,correct,True,13.0
38,41,573.9146666666667,7233,573.892,573.896,573.9,0.275397077619373,29.190674104789014,-0.266715943813324,-27.91864013671875,-0.1676846444606781,-21.411027908325195,-0.0686014262028038,-8.523202896118164,-0.1041711270809173,-12.126322746276855,L,False,True,1,L,0,,0.354,RightResponse,incorrect,True,17.0
39,42,577.7156666666667,7240,577.307,577.31,577.313,0.1700434870706434,20.917842286196464,-0.1651130318641662,-20.390892028808597,-0.2312062829732895,-30.142263412475582,0.0406506359577178,4.665581226348877,-0.099087655544281,-12.218491554260254,L,False,True,1,L,400,,0.319,RightResponse,incorrect,True,18.0
40,43,580.7546666666667,7245,580.642,580.649,580.653,0.3978399196989234,38.04194923357517,-0.3200657367706299,-32.51417922973633,-0.3734812289476394,-34.50688934326172,-0.2362933047115802,-19.74887466430664,-0.1702330783009529,-20.51111221313477,L,False,True,1,R,100,,0.27,RightResponse,correct,True,13.0
41,44,583.7436666666666,7251,583.533,583.54,583.546,0.8237279867427028,90.01867961526271,-0.8231635289266706,-90.00765228271484,-0.8587690889835358,-85.60041809082031,0.0304893553256988,1.4089748859405518,-0.0304894670844078,-5.173964023590088,L,False,True,1,R,200,,0.201,RightResponse,correct,True,12.0
42,45,588.4566666666667,7257,588.443,588.45,588.455,0.5037959471438502,49.51423828687053,-0.4954236000776291,-47.64801788330078,-0.3835737705230713,-38.471923828125,-0.0914648175239563,-13.465741157531738,-0.0152447372674942,-5.543546676635742,L,False,True,1,R,0,,0.378,LeftResponse,incorrect,True,20.0
43,46,592.4786666666666,1709,592.467,592.473,592.478,0.4803606938201311,48.60959890498339,0.4750635325908661,46.53682327270508,0.7749305963516235,75.53018188476562,0.0711409598588943,14.04340362548828,0.0736821144819259,12.195624351501465,L,False,True,1,L,0,,0.362,LeftResponse,correct,True,23.0
44,47,597.5826666666667,1715,597.569,597.574,597.58,0.4724354060827738,49.44839449327266,0.4674284756183624,48.937347412109375,0.3506272323429584,36.541011810302734,0.0685990750789642,7.090821266174316,0.188017837703228,21.38876724243164,L,False,True,1,R,0,,0.264,RightResponse,correct,True,22.0
45,48,603.0656666666666,7281,603.002,603.01,603.015,0.730640907607853,76.08147928033972,-0.7290445864200592,-74.79597473144531,-0.5868528783321381,-62.61019515991211,-0.0482713878154754,-13.926724433898926,-0.104172533378005,-12.519184112548828,L,False,True,1,R,50,,0.283,RightResponse,correct,True,9.0
46,49,606.1176666666667,10545,606.007,606.01,606.014,0.2353866845011062,29.02303413877249,0.1270275115966797,14.4811429977417,0.3125136755406856,36.61001968383789,-0.1981688737869262,-25.152196884155277,-0.2413621544837951,-23.23529815673828,L,False,True,1,R,100,,0.2,LeftResponse,incorrect,True,12.0
47,51,614.1986666666667,1735,613.789,613.792,613.796,0.2237028652407275,26.21487506321843,0.2235729694366455,26.21437644958496,0.3760343715548515,43.07764434814453,-0.0076222866773605,-0.1616846919059753,0.0686005204916,8.63858413696289,L,False,True,1,L,400,,0.234,LeftResponse,correct,True,21.0
48,52,617.6086666666666,7310,617.489,617.494,617.496,0.2024775213055556,25.108324611640874,-0.193077802658081,-22.88742446899414,-0.1422649621963501,-5.173234462738037,-0.0609762966632843,-10.32442569732666,-0.1626066863536834,-23.259212493896484,L,False,True,1,L,100,,0.305,RightResponse,incorrect,True,15.0
49,53,621.4556666666667,7320,621.34,621.347,621.353,0.601041091107175,59.6811461924684,-0.5385956466197968,-55.82276916503906,-0.3963297009468078,-41.31907272338867,-0.2667679190635681,-21.110605239868164,-0.2235876992344856,-23.744569778442383,L,False,True,1,R,100,,0.235,RightResponse,correct,True,18.0
50,54,624.4616666666667,7327,624.395,624.402,624.407,0.5606233099610668,52.95883856028682,-0.4902940094470978,-45.12611389160156,-0.3455196321010589,-38.50147247314453,0.2718644514679909,27.71772766113281,0.1092541515827179,2.656285047531128,L,False,True,1,R,50,,0.288,RightResponse,correct,True,8.0
51,55,629.6706666666666,1758,629.608,629.612,629.618,0.4750806372113411,52.33327651279106,0.475053459405899,52.14698791503906,0.4471458792686462,53.56051254272461,0.0050815902650356,-4.411743640899658,0.0558974854648113,8.015052795410156,L,False,True,1,L,50,,0.378,RightResponse,incorrect,True,7.0
52,56,633.1716666666666,7345,632.759,632.764,632.768,0.3862048024340403,39.33583666462423,-0.3861713707447052,-39.21749877929688,-0.3760058283805847,-38.89347457885742,0.0050815194845199,3.0489072799682617,-0.0330301374197006,-1.9402313232421875,L,False,True,1,R,400,,0.287,RightResponse,correct,True,20.0
53,58,639.7876666666667,7362,639.574,639.58,639.585,0.5196178714174994,55.055208618128844,-0.5132176801562309,-53.21569061279297,-0.3607304096221924,-37.08893203735352,-0.0813040286302566,-14.112627983093262,0.0177855119109153,-3.3492119312286377,L,False,True,1,R,200,,0.226,RightResponse,correct,True,11.0
54,59,642.9726666666667,7370,642.762,642.767,642.771,0.3769795941441163,38.0218201077864,-0.3124793767929077,-32.448726654052734,-0.2286588549613952,-22.357643127441406,-0.2108797132968902,-19.817642211914062,-0.1626105224713683,-20.580379486083984,L,False,True,1,L,200,,0.366,RightResponse,incorrect,True,10.0
55,60,647.1606666666667,7381,646.946,646.953,646.959,0.6046760794565588,59.329589712999415,-0.60454261302948,-59.32239532470703,-0.4420364499092102,-49.76981735229492,-0.0127039402723312,-0.9239201545715332,-0.1117946282029151,-11.01778507232666,L,False,True,1,L,200,,0.38,RightResponse,incorrect,True,13.0
56,61,650.1876666666667,7390,650.125,650.131,650.136,0.538299583502984,59.07091799828398,-0.5080716609954834,-56.83489227294922,-0.5386121273040771,-60.1900520324707,-0.1778472065925598,-16.09870719909668,-0.2998037785291672,-31.435667037963867,L,False,True,1,L,50,,0.317,LeftResponse,correct,True,9.0
57,62,653.7516666666667,7396,653.34,653.346,653.351,0.5644150527883754,51.68720473328189,-0.5182393491268158,-47.2510871887207,-0.5081124305725098,-49.93361282348633,-0.2235896438360214,-20.94998550415039,-0.0254065692424774,-8.245596885681152,L,False,True,1,R,400,,0.309,RightResponse,correct,True,19.0
58,63,656.8696666666667,7404,656.756,656.762,656.767,0.5513990395063966,54.83910442746883,-0.4471290707588196,-45.65968322753906,-0.3175731897354126,-32.24227523803711,-0.3226708769798279,-30.37302589416504,-0.3734688758850097,-38.96332550048828,L,False,True,1,L,100,,0.311,LeftResponse,correct,True,17.0
59,64,662.0906666666667,1839,662.079,662.083,662.087,0.2266396893625334,25.509592661329236,0.2261264026165008,25.476778030395508,0.3023443967103958,35.93961334228516,-0.0152446329593658,-1.2934832572937012,0.0457303524017334,4.6885271072387695,L,False,True,1,L,0,,0.237,RightResponse,incorrect,True,20.0
60,65,665.6456666666667,7422,665.231,665.235,665.24,0.3255467723367606,39.88773455776855,-0.3251896500587463,-39.88660430908203,-0.3302811682224273,-35.545867919921875,0.0152444243431091,0.3002746105194092,-0.1321212351322174,-12.79636001586914,L,False,True,1,L,400,,0.294,RightResponse,incorrect,True,18.0
61,66,668.8646666666667,10639,668.842,668.846,668.853,0.3873904324534296,41.06745442685419,-0.111784815788269,-22.448884963989254,-0.0431911051273345,-10.71686840057373,-0.3709117174148559,-34.388710021972656,-0.2565889954566955,-31.709789276123047,L,False,True,1,R,0,,0.259,RightResponse,correct,True,23.0
62,67,672.1786666666667,1866,671.766,671.771,671.776,0.3109889920389007,38.85969412201212,0.3099493384361267,38.50118637084961,0.5970396995544434,64.2770767211914,0.025407887995243,5.266353130340576,0.0152442753314971,5.959146499633789,L,False,True,1,R,400,,0.226,LeftResponse,incorrect,True,21.0
63,68,676.1506666666667,7450,675.935,675.943,675.948,0.6123258794090609,58.010382675366536,-0.6122415363788605,-57.52865982055664,-0.4344167709350586,-38.19850158691406,0.0101628601551055,-7.460415363311768,-0.0482740998268127,-8.75396728515625,L,False,True,1,L,200,,0.302,RightResponse,incorrect,True,16.0
64,69,679.3646666666667,4856,679.146,679.148,679.151,0.209503678359603,28.31403448200604,0.1321088075637817,16.698373794555664,0.1956341713666916,26.377046585083008,0.1626009047031402,22.86588859558105,0.1626098714768886,23.767852783203125,L,False,True,1,L,200,,0.339,LeftResponse,correct,True,19.0
65,70,683.9226666666667,7473,683.809,683.815,683.82,0.4865232410582346,48.68473414605375,-0.4826869368553161,-48.52237319946289,-0.4649051427841186,-44.80449295043945,-0.0609769225120544,-3.972736835479736,-0.0736795365810394,-11.664039611816406,L,False,True,1,L,100,,0.397,RightResponse,incorrect,True,16.0
66,71,687.7576666666666,7482,687.643,687.648,687.653,0.4027538893374452,43.19906274850681,-0.3988563120365143,-42.68022537231445,-0.3480042219161987,-36.41685104370117,0.0558957755565643,6.675131797790527,0.0050810575485229,-5.496792793273926,L,False,True,1,R,100,,0.251,RightResponse,correct,True,19.0
67,72,690.7676666666666,1903,690.755,690.759,690.763,0.2797528098335143,32.6952323262157,0.2159628570079803,24.96853828430176,0.3963478356599808,42.36016082763672,-0.177824854850769,-21.108062744140625,0.0635173916816711,3.395291805267334,L,False,True,1,L,0,,0.204,LeftResponse,correct,True,22.0
68,73,694.9186666666667,7501,694.855,694.859,694.864,0.3558713701278956,38.26813638901928,-0.3506091833114624,-37.97123718261719,-0.2387988567352295,-26.85913848876953,-0.0609723925590515,-4.757668495178223,-0.0813038498163223,-2.101888418197632,L,False,True,1,R,50,,0.397,LeftResponse,incorrect,True,8.0
69,74,698.5116666666667,7510,698.099,698.106,698.112,0.506155604898098,48.79428898678046,-0.4699398279190063,-44.45382690429688,-0.449663370847702,-37.414695739746094,-0.1880161017179489,-20.118148803710938,-0.0914673060178756,-6.444284439086914,L,False,True,1,R,400,,0.372,RightResponse,correct,True,24.0
70,75,702.8336666666667,7517,702.71,702.715,702.72,0.4054740291025304,44.227509120372666,-0.4039110541343689,-44.22484970092773,-0.200708121061325,-21.756977081298828,-0.0355675220489501,0.4850071370601654,-0.1219573840498924,-12.911731719970703,L,False,True,1,L,100,,0.318,LeftResponse,correct,True,18.0
71,76,706.4016666666666,1923,706.189,706.194,706.199,0.3291641036509167,36.3312393505742,0.3277491182088852,36.21634292602539,0.5945161283016205,55.80233001708984,-0.0304880738258361,-2.88711929321289,0.0736829452216625,5.520446300506592,L,False,True,1,R,200,,0.283,RightResponse,correct,True,18.0
72,77,711.1186666666666,1931,710.706,710.708,710.712,0.1921783823758692,24.32192313354658,0.1752966940402984,22.61062431335449,0.2159587144851684,28.016788482666016,-0.0787629336118698,-8.961897850036621,-0.0076223849318921,-2.817972183227539,L,False,True,1,L,400,,0.316,LeftResponse,correct,True,23.0
73,78,714.4986666666666,1941,714.44,714.442,714.447,0.1947560614970299,24.31097748278684,0.188010573387146,23.46659278869629,0.3023507036268711,39.93597030639648,-0.0508128702640533,-6.35158634185791,-0.0940055847167968,-9.70081901550293,L,False,True,1,L,50,,0.297,RightResponse,incorrect,True,11.0
74,79,717.9256666666666,1946,717.867,717.871,717.874,0.2015002714599388,22.76786952504952,0.2007139027118683,22.5659294128418,0.4649611115455627,48.78293991088867,-0.0177845060825347,-3.0256755352020264,0.066057413816452,4.226741790771484,L,False,True,1,L,50,,0.259,LeftResponse,correct,True,14.0
75,80,909.0536666666667,2151,908.942,908.949,908.954,0.5487659050014484,56.50039316963049,0.5208587646484375,53.1484489440918,0.5970558971166611,61.206993103027344,-0.172772005200386,-19.17124938964844,-0.0965475738048553,-20.048723220825195,L,False,True,2,R,100,,0.234,RightResponse,correct,True,17.0
76,81,913.5126666666666,2167,913.502,913.507,913.512,0.3483061985425977,38.15803951990485,0.3353795483708381,36.91029739379883,0.5488007888197899,58.73722457885742,-0.0940093956887722,-9.678115844726562,-0.0584381558001041,-2.7486751079559326,L,False,True,2,L,0,,0.227,RightResponse,incorrect,True,21.0
77,82,916.6486666666667,2173,916.535,916.539,916.544,0.2996960433042868,33.43538857145424,0.2972628474235534,33.26016998291016,0.3506120294332504,39.95787811279297,0.0381119130179286,3.4185233116149902,0.0660604536533355,11.456624031066896,L,False,True,2,R,100,,0.361,RightResponse,correct,True,16.0
78,83,921.1406666666667,7757,921.075,921.081,921.085,0.3231500317227191,31.128507607421145,-0.3099346756935119,-30.27731132507324,-0.2947180122137069,-31.68903923034668,-0.0914682447910308,-7.229689121246338,-0.0813046395778656,-11.7337646484375,L,False,True,2,R,50,,0.395,RightResponse,correct,True,13.0
79,84,924.3126666666667,2192,924.1,924.104,924.109,0.4006504192438508,41.72670554192584,0.3912265002727508,41.36299896240234,0.2947301100939512,36.05595016479492,-0.0863862484693527,-5.4972968101501465,0.0355710238218307,4.250039577484131,L,False,True,2,L,200,,0.222,LeftResponse,correct,True,17.0
80,85,927.6766666666666,2199,927.617,927.625,927.631,0.9156267198016136,90.78907376028758,0.9045040011405944,88.81107330322266,1.2093268930912018,118.5091781616211,-0.1422842293977737,-18.848054885864254,-0.0635195672512054,-3.8342807292938232,L,False,True,2,R,50,,0.384,RightResponse,correct,True,12.0
81,86,931.4576666666667,7782,931.346,931.353,931.358,0.6360342433611388,55.61609304679692,-0.635176008567214,-55.59519577026367,-0.5919632911682129,-55.17742538452149,-0.0330302417278289,-1.524471402168274,-0.1321141421794891,-6.028204917907715,L,False,True,2,R,100,,0.385,RightResponse,correct,True,15.0
82,87,935.0336666666667,7792,934.618,934.624,934.628,0.2921357869578103,32.11256949705141,-0.2896391451358795,-31.80487060546875,-0.3353787437081337,-37.32587814331055,-0.038111463189125,-4.434785842895508,-0.0457338690757751,-6.144057750701904,L,False,True,2,L,400,,0.292,LeftResponse,correct,True,22.0
83,88,939.0306666666667,7800,938.914,938.921,938.928,0.568490692976459,51.317856453701154,-0.5614923760294914,-51.16023635864258,-0.3633243665099144,-39.4737434387207,-0.0889268219470977,-4.019030570983887,-0.0076223760843276,2.19431734085083,L,False,True,2,R,100,,0.383,RightResponse,correct,True,14.0
84,89,943.0856666666667,2229,942.673,942.678,942.683,0.370929851686306,44.24852397951541,0.3684064000844955,44.18575668334961,0.2972586005926132,33.39837646484375,0.0431935093365609,-2.3560094833374023,0.0965501889586448,12.034124374389648,L,False,True,2,R,400,,0.257,RightResponse,correct,True,21.0
85,90,946.8076666666667,7814,946.594,946.598,946.601,0.2070684170206939,25.438586059457613,-0.2058019191026687,-25.29215240478516,-0.2413662075996399,-28.478849411010746,-0.0228669941425323,-2.7255618572235107,-0.1753146424889564,-20.626609802246094,L,False,True,2,L,200,,0.374,LeftResponse,correct,True,16.0
86,91,950.0846666666666,7822,949.873,949.878,949.883,0.4240660843994489,48.80236732271994,-0.4090652391314506,-47.11992263793945,-0.4014189839363098,-46.17010498046875,-0.1117929965257644,-12.70369815826416,-0.2566197738051414,-27.44053649902344,L,False,True,2,R,200,,0.366,RightResponse,correct,True,15.0
87,92,953.1566666666666,2250,953.049,953.054,953.06,0.5513947246117593,50.19452404351806,0.5488070845603943,50.19195175170898,0.569127582013607,56.08151626586914,-0.0533565953373909,-0.5081567764282227,0.0787641257047653,15.152335166931152,L,False,True,2,L,100,,0.228,LeftResponse,correct,True,13.0
88,93,955.9216666666666,2256,955.908,955.911,955.917,0.3022190799942947,32.88545753619045,0.2998063713312149,32.38270568847656,0.3099660873413086,38.71110916137695,0.0381118357181549,5.728323459625244,-0.0127036273479461,7.114069938659668,L,False,True,2,R,0,,0.201,RightResponse,correct,True,24.0
89,94,960.6346666666667,2266,960.571,960.576,960.583,0.564284943111003,55.41032320391342,0.5615095645189285,55.0423698425293,0.4166645556688308,49.88904571533203,-0.0558972805738449,-6.375063896179199,0.0304886102676391,1.7554010152816772,L,False,True,2,L,50,,0.226,LeftResponse,correct,True,11.0
90,95,964.0986666666666,2276,963.686,963.691,963.696,0.3483096877223025,36.94268093675152,0.3353833109140396,35.940547943115234,0.4675036668777466,50.00726318359375,-0.0940089002251625,-8.54626750946045,0.1117940917611122,6.490540504455566,L,False,True,2,L,400,,0.38,LeftResponse,correct,True,20.0
91,96,967.9326666666667,7852,967.859,967.864,967.869,0.3456307953508724,35.16509663312343,-0.3455467373132705,-35.06287384033203,-0.2540757358074188,-23.652233123779297,0.0076222717761993,2.679346799850464,-0.0330301374197006,0.7160378694534302,L,False,True,2,R,50,,0.338,LeftResponse,incorrect,True,10.0
92,97,971.1846666666667,7862,971.112,971.116,971.12,0.2731749607098779,31.771497882577435,-0.2591560408473015,-30.32726287841797,-0.1778551428578794,-20.811363220214844,0.0863869530148804,9.470227241516112,0.0203248262405395,0.9238631129264832,L,False,True,2,L,50,,0.246,LeftResponse,correct,True,13.0
93,98,974.7066666666667,7872,974.491,974.497,974.502,0.5970091227889666,65.53744252258724,-0.5691021680831909,-62.47649765014648,-0.4598689675331116,-44.13911819458008,-0.1803957177326083,-19.795040130615234,-0.1651471555233001,-14.34354305267334,L,False,True,2,R,200,,0.329,RightResponse,correct,True,14.0
94,99,978.1326666666666,7882,978.117,978.123,978.129,0.4201597611027122,40.50825718303954,-0.4192291647195816,-40.39852142333984,-0.2743954956531524,-36.309059143066406,-0.0279487441293895,-2.979658842086792,-0.1016280055046081,-12.47251033782959,L,False,True,2,L,0,,0.376,RightResponse,incorrect,True,23.0
95,100,981.6756666666666,7892,981.464,981.468,981.473,0.4523389494482362,55.12151749699117,-0.4090517312288284,-50.14404678344727,-0.4446219876408577,-50.30573654174805,-0.1930989548563957,-22.89009094238281,-0.246440589427948,-30.394819259643555,L,False,True,2,L,200,,0.296,LeftResponse,correct,True,13.0
96,101,987.1506666666667,7904,987.13,987.135,987.139,0.3234890072539514,36.18642178046372,-0.32267976552248,-35.54792022705078,-0.2972565293312073,-27.73931121826172,-0.0228671540971845,-6.767753601074219,0.0381095111370086,3.2566401958465576,L,False,True,2,R,0,,0.314,RightResponse,correct,True,26.0
97,102,990.6186666666666,2348,990.507,990.513,990.519,0.376886455308735,32.27280671482545,0.3760290592908859,32.10570526123047,0.4776666462421417,47.997684478759766,0.0254076123237609,-3.279899835586548,0.0203259289264678,0.6467328667640686,L,False,True,2,L,100,,0.386,LeftResponse,correct,True,12.0
98,103,994.4116666666666,7921,993.995,994.002,994.006,0.4573436846017665,44.00384920289469,-0.4573366269469261,-43.97822952270508,-0.2616944462060928,-29.95732688903809,0.0025407671928405,-1.5013569593429563,0.030487447977066,-7.529567241668701,L,False,True,2,R,400,,0.342,RightResponse,correct,True,19.0
99,104,997.7636666666667,7931,997.346,997.352,997.358,0.549086133096753,56.639458081102205,-0.5386171340942383,-56.31026077270508,-0.3633091747760772,-28.50155258178711,-0.1067106574773788,-6.0977654457092285,-0.1295788735151291,-9.331546783447266,L,False,True,2,R,400,,0.342,RightResponse,correct,True,18.0
100,105,1001.9806666666667,7941,1001.566,1001.572,1001.577,0.4749592775539871,46.87052142726821,-0.4674999117851257,-46.49603271484375,-0.2261170744895935,-28.755460739135746,0.0838459767401218,5.913097381591797,0.0533535778522491,-1.5243918895721436,L,False,True,2,L,400,,0.244,LeftResponse,correct,True,17.0
101,106,1005.7196666666666,7951,1005.708,1005.712,1005.717,0.3668071882582651,41.64213930945794,-0.3582509160041809,-41.23006057739258,-0.2947145998477936,-33.83689880371094,-0.0787641704082489,-5.843789100646973,-0.0304884612560272,-0.600532591342926,L,False,True,2,R,0,,0.382,RightResponse,correct,True,25.0
102,107,1009.9076666666667,2394,1009.835,1009.838,1009.841,0.1374127470952006,17.658604661120265,0.1372011750936508,17.646757125854492,0.2388287931680679,29.680334091186523,-0.0076223760843276,-0.6467468738555908,0.0431925356388092,3.5801336765289307,L,False,True,2,R,50,,0.397,RightResponse,correct,True,12.0
103,108,1015.4656666666667,7972,1015.25,1015.256,1015.262,0.4279535852711721,39.27412637918837,-0.3989021480083465,-37.026145935058594,-0.3836522772908211,-38.4808235168457,0.1549882171675562,13.096622467041016,-0.1117947045713663,-11.595232009887695,L,False,True,2,R,200,,0.293,RightResponse,correct,True,12.0
104,109,1018.9836666666666,7979,1018.96,1018.965,1018.97,0.4223893250874044,44.27543139643744,-0.4217698872089386,-44.25585174560547,-0.284548670053482,-27.69275665283203,-0.0228670984506607,-1.3165909051895142,-0.0609788969159126,-4.342439651489258,L,False,True,2,L,0,,0.244,LeftResponse,correct,True,24.0
105,110,1022.7646666666667,7988,1022.352,1022.357,1022.362,0.3634728824550569,39.65935978405527,-0.3633307740092277,-39.65925216674805,-0.3633177727460861,-41.66735076904297,-0.0101629197597503,0.0923907756805419,-0.0101631358265876,-4.481016635894775,L,False,True,2,L,400,,0.241,RightResponse,incorrect,True,16.0
106,111,1026.1826666666666,7996,1026.069,1026.074,1026.08,0.4779054289294768,50.87192236394079,-0.4776622205972671,-50.8151741027832,-0.3912687003612518,-38.91911697387695,0.0152447372674942,-2.402200222015381,-0.0431911647319793,-5.243010520935059,L,False,True,2,L,100,,0.251,LeftResponse,correct,True,11.0
107,112,1029.1676666666665,8005,1029.103,1029.108,1029.113,0.4362147757454463,45.601783094046965,-0.4319317266345024,-45.27202224731445,-0.3988904654979706,-40.143192291259766,-0.0609779804944992,-5.474177837371826,-0.1981806829571724,-25.292280197143555,L,False,True,2,L,50,,0.216,LeftResponse,correct,True,11.0
108,113,1032.2276666666667,8010,1032.101,1032.108,1032.112,0.5803715325942508,59.786903633723526,-0.4039834961295128,-41.53008270263672,-0.2184900343418121,-21.063535690307617,-0.416687473654747,-43.00844192504883,-0.4166858941316604,-37.32615280151367,L,False,True,2,L,100,,0.364,LeftResponse,correct,True,10.0
109,114,1035.4126666666666,8020,1035.199,1035.206,1035.212,0.7517910040255229,77.77932559521446,-0.7495163232088089,-77.4003677368164,-0.5233824551105499,-56.426876068115234,0.0584379583597183,7.668543815612793,-0.1676871180534362,-17.18462562561035,L,False,True,2,R,200,,0.202,RightResponse,correct,True,11.0
110,115,1038.4816666666666,8027,1038.266,1038.272,1038.278,0.4694887957099438,43.3918231966692,-0.4674976523965597,-43.21588134765625,-0.3963554017245769,-42.3381462097168,-0.0431934520602226,-3.9035778045654297,-0.0533556640148162,-7.622188568115234,L,False,True,2,L,200,,0.219,LeftResponse,correct,True,10.0
111,116,1042.0956666666666,2472,1041.682,1041.688,1041.693,0.3824527928691705,39.4068136602961,0.3633318543434143,37.97317123413086,0.4319237396121025,43.07701873779297,-0.119415670633316,-10.53257942199707,0.0203257501125335,-0.8084040880203247,L,False,True,2,R,400,,0.283,RightResponse,correct,True,19.0
112,117,1044.9216666666666,2478,1044.91,1044.912,1044.916,0.2024975704851271,24.863534505034146,0.1930986866354942,23.606111526489254,0.1829264760017395,23.166072845458984,-0.0609767436981201,-7.8068461418151855,0.0813053175806999,10.948501586914062,L,False,True,2,R,0,,0.292,RightResponse,correct,True,23.0
113,118,1048.1736666666666,8054,1048.107,1048.112,1048.117,0.4197703782989664,41.26458300346973,-0.4166832822374999,-41.252628326416016,-0.3302866071462631,-33.952728271484375,-0.0508154779672622,-0.9932102560997008,-0.0177855491638183,-0.9701208472251892,L,False,True,2,L,50,,0.297,LeftResponse,correct,True,10.0
114,119,1051.4546666666665,8062,1051.442,1051.447,1051.452,0.4180879300235748,45.91763245554285,-0.409065768122673,-44.32514572143555,-0.3886948525905609,-42.31081008911133,0.0863870047032833,11.98792839050293,-0.0482740253210067,-7.807001113891602,L,False,True,2,L,0,,0.303,RightResponse,incorrect,True,22.0
115,120,1169.2116666666666,2684,1169.102,1169.108,1169.113,0.5187370625952804,54.838124104779055,0.4370136111974716,45.1103515625,0.6301052570343018,65.80584716796875,-0.2794767320156097,-31.18134117126465,-0.2515382915735245,-27.37125587463379,L,False,True,3,L,100,,0.291,RightResponse,incorrect,True,9.0
116,121,1173.1046666666666,8237,1172.982,1172.987,1172.992,0.4174069015114643,44.853664042813534,-0.4014422297477722,-43.37801742553711,-0.2667679190635681,-28.893966674804688,-0.114335723221302,-11.410468101501465,-0.0457343067973852,-5.358767032623291,L,False,True,3,L,100,,0.233,LeftResponse,correct,True,12.0
117,122,1177.2096666666666,8243,1177.184,1177.19,1177.195,0.3811148163433946,40.583571270449895,-0.3811063468456268,-40.58209228515625,-0.3531668297946453,-30.07345390319824,0.0025407932698726,-0.3464719653129577,0.1168753057718277,20.649538040161133,L,False,True,3,R,0,,0.331,RightResponse,correct,True,25.0
118,123,1180.7146666666665,8253,1180.702,1180.708,1180.713,0.3692878411042104,38.94867363399259,-0.3607915937900543,-37.46507263183594,-0.4115868061780929,-44.85439682006836,-0.0787587165832519,-10.647418022155762,-0.045734167098999,-10.440337181091309,L,False,True,3,L,0,,0.396,RightResponse,incorrect,True,24.0
119,124,1184.5746666666666,8265,1184.352,1184.355,1184.36,0.2475150023169389,29.056828871474934,-0.246456503868103,-28.734025955200195,-0.2337523773312568,-23.72173309326172,-0.0228663086891174,4.319149971008301,-0.1016305834054946,-5.312482833862305,L,False,True,3,L,200,,0.282,LeftResponse,correct,True,9.0
120,125,1189.0746666666666,8273,1188.862,1188.868,1188.873,0.446261922799901,49.17502516448291,-0.4446316435933113,-49.17497634887695,-0.3201200366020202,-42.520809173583984,-0.0381104350090026,-0.069289356470108,0.0330298244953155,7.2758355140686035,L,False,True,3,L,200,,0.392,RightResponse,incorrect,True,8.0
121,126,1192.8636666666666,2734,1192.454,1192.455,1192.459,0.2410531766074443,30.66277951090675,0.1295803061220795,16.67683219909668,0.2540787234902382,35.20147705078125,0.2032623384147882,25.731096267700195,0.1499061174690723,29.957956314086918,L,False,True,3,L,400,,0.273,LeftResponse,correct,True,18.0
122,127,1195.9316666666666,8288,1195.919,1195.926,1195.931,0.4884882172184566,53.578033950692586,-0.4878269955515861,-51.97012710571289,-0.4115964844822883,-38.78036117553711,-0.025407887995243,-13.02734088897705,0.017785370349884,1.917128086090088,L,False,True,3,L,0,,0.368,LeftResponse,correct,True,27.0
123,128,1200.3496666666665,2752,1200.287,1200.292,1200.299,0.3921049340317522,34.42681511083539,0.3912809044122696,34.39304733276367,0.3430062681436538,32.89168167114258,-0.0254073441028594,1.5244323015213013,0.0101625025272369,2.1941468715667725,L,False,True,3,L,50,,0.346,LeftResponse,correct,True,9.0
124,129,1203.7256666666665,8304,1203.312,1203.318,1203.323,0.5238643277552216,57.16988233630308,-0.4979878962039947,-54.787933349609375,-0.4395479680970311,-50.97650909423828,-0.1626096218824386,-16.330272674560547,-0.1194158345460891,-13.743179321289062,L,False,True,3,L,400,,0.377,LeftResponse,correct,True,17.0
125,130,1208.4846666666665,8310,1208.371,1208.377,1208.383,0.5483951834914581,55.95309230128502,-0.5462662279605865,-55.82783126831055,-0.5081352069973946,-50.79063415527344,-0.048275101929903,-3.7418971061706543,0.0330297797918319,1.0855973958969116,L,False,True,3,R,100,,0.238,RightResponse,correct,True,11.0
126,131,1212.1696666666667,8317,1211.753,1211.759,1211.763,0.3514455411696832,34.51444583789339,-0.3379247188568115,-34.23135757446289,-0.2591593265533447,-28.641498565673828,0.0965445637702941,4.411477088928223,-0.1600674986839294,-23.44424819946289,L,False,True,3,R,400,,0.232,RightResponse,correct,True,16.0
127,132,1215.1216666666667,8328,1215.11,1215.115,1215.118,0.3116277274681804,32.55260782852932,-0.2845672182738781,-29.357601165771484,-0.2007200270891189,-24.345081329345703,-0.127017080783844,-14.064264297485352,-0.1524474089965224,-23.12118911743164,L,False,True,3,R,0,,0.248,RightResponse,correct,True,26.0
128,133,1219.0266666666666,8336,1218.811,1218.817,1218.821,0.3808468007642976,41.39543252244015,-0.3607916980981827,-39.40531921386719,-0.3353721499443054,-32.49776840209961,-0.1219575181603431,-12.680798530578612,-0.1448240950703621,-11.040813446044922,L,False,True,3,R,200,,0.355,RightResponse,correct,True,11.0
129,134,1223.0146666666665,8343,1222.949,1222.955,1222.961,0.4560038197877507,40.29314194398192,-0.4522450640797615,-39.93535232543945,-0.3226641863584518,-38.36420440673828,-0.0584284663200378,5.357697486877441,-0.1727718189358711,-13.41985034942627,L,False,True,3,R,50,,0.351,LeftResponse,incorrect,True,8.0
130,135,1227.1036666666666,8353,1226.992,1226.998,1227.004,0.6259779974309073,66.64132993893621,-0.597075417637825,-64.21148681640625,-0.386176660656929,-47.41768646240234,-0.1880143582820892,-17.83120346069336,-0.2667810209095478,-24.853395462036133,L,False,True,3,R,100,,0.333,RightResponse,correct,True,10.0
131,136,1230.7506666666666,8363,1230.539,1230.543,1230.547,0.2828328920758559,33.0094849426869,-0.2693181484937668,-31.435850143432617,-0.3048853129148483,-33.39879608154297,-0.0863839089870452,-10.070423126220703,-0.0889275036752224,-9.216127395629885,L,False,True,3,L,200,,0.328,RightResponse,incorrect,True,10.0
132,137,1234.6226666666666,8368,1234.408,1234.412,1234.417,0.3466738284921347,38.50301941555179,-0.3455455079674721,-38.34263229370117,-0.3633144944906235,-37.85594940185547,-0.027947187423706,-3.5107054710388184,-0.0457334518432617,-8.037982940673828,L,False,True,3,L,200,,0.372,LeftResponse,correct,True,13.0
133,138,1237.6826666666666,8375,1237.561,1237.565,1237.569,0.3198237369107203,37.409422145284,-0.3099740424659103,-36.61022567749024,-0.2134124934673309,-25.66029167175293,-0.0787611305713653,-7.691309452056885,-0.0813043564558029,-9.470120429992676,L,False,True,3,R,100,,0.201,LeftResponse,incorrect,True,9.0
134,139,1241.4296666666667,8384,1241.368,1241.374,1241.378,0.353906284319602,38.884078022485085,-0.3531667720526457,-38.6196403503418,-0.3175766170024872,-36.93118667602539,0.0228667706251144,-4.527129650115967,-0.1168757006525993,-10.486490249633787,L,False,True,3,R,50,,0.363,RightResponse,correct,True,11.0
135,140,1244.7146666666665,8393,1244.292,1244.299,1244.303,0.4069809961835914,36.84732375473938,-0.3480876684188843,-29.888891220092773,-0.152443915605545,-16.353025436401367,-0.2108755707740783,-21.54946517944336,-0.1727691888809204,-17.877452850341797,L,False,True,3,L,400,,0.397,LeftResponse,correct,True,15.0
136,141,1248.1206666666665,8402,1248.057,1248.062,1248.068,0.4426803465916988,44.447947892156606,-0.4420894107315689,-44.41682815551758,-0.3048819154500961,-37.07095336914063,0.022865742444992,1.6629637479782104,-0.033028244972229,-4.78102445602417,L,False,True,3,L,50,,0.353,LeftResponse,correct,True,10.0
137,142,1251.3426666666667,8411,1251.328,1251.333,1251.338,0.4434145688538045,46.041357523833526,-0.4395478218793869,-45.10975646972656,-0.3861889690160751,-45.13236999511719,-0.0584310889244079,-9.21501350402832,-0.0838437676429748,-7.044693470001221,L,False,True,3,L,0,,0.258,LeftResponse,correct,True,25.0
138,144,1261.6346666666666,2872,1261.622,1261.628,1261.634,0.510231741399114,50.68013701262171,0.5055994838476181,48.68911743164063,0.6046994626522064,62.08696365356445,0.0685973167419433,14.065778732299805,0.0584381967782974,11.248778343200684,L,False,True,3,R,0,,0.346,RightResponse,correct,True,24.0
139,145,1265.3026666666665,2881,1264.891,1264.894,1264.899,0.286965555512474,31.98817603949566,0.2693157494068146,30.188379287719727,0.398902952671051,44.99499130249024,-0.099087119102478,-10.578523635864258,-0.1270385831594467,-14.06662654876709,L,False,True,3,R,400,,0.267,LeftResponse,incorrect,True,14.0
140,146,1269.3406666666665,8441,1269.127,1269.133,1269.137,0.4104758153776667,44.463809622322,-0.396362230181694,-42.82380676269531,-0.3048789501190185,-32.936065673828125,-0.1067116558551788,-11.964612007141112,-0.0381119209341704,-3.0489532947540283,L,False,True,3,R,200,,0.255,RightResponse,correct,True,12.0
141,147,1272.5886666666665,8451,1272.525,1272.531,1272.537,0.5233826972879246,53.41365405404333,-0.515774555504322,-53.24064254760742,-0.4649369567632675,-45.22348403930664,-0.088916003704071,-4.295628070831299,-0.068598985671997,-3.672466278076172,L,False,True,3,R,50,,0.315,LeftResponse,incorrect,True,9.0
142,148,1276.3526666666667,2905,1276.292,1276.295,1276.302,0.287030002838885,25.258771424965527,0.2820275947451591,24.76117515563965,0.2184984385967254,32.08192825317383,0.0533540844917297,4.988961696624756,0.0711405575275421,11.641183853149414,L,False,True,3,R,50,,0.304,RightResponse,correct,True,12.0
143,149,1279.4326666666666,8469,1279.32,1279.325,1279.331,0.4649688091629014,46.30829427200459,-0.4598814249038696,-45.01811599731445,-0.4242802262306213,-43.28339767456055,0.0685935020446777,10.854830741882324,0.0457337647676467,5.266305923461914,L,False,True,3,L,100,,0.297,RightResponse,incorrect,True,15.0
144,150,1283.7966666666666,2921,1283.734,1283.736,1283.74,0.2136214086374915,26.0501287077974,0.190559234470129,24.3915958404541,0.3099755644798279,41.18373489379883,-0.0965467989444732,-9.146543502807615,-0.0381115972995758,-2.6562631130218506,L,False,True,3,L,50,,0.322,LeftResponse,correct,True,11.0
145,151,1286.7486666666666,8489,1286.535,1286.537,1286.54,0.1602509161500746,21.641532494067445,-0.1600695652887225,-21.619781494140625,-0.2464493364095688,-31.551074981689453,-0.0076217055320739,-0.9700396060943604,0.0076221823692321,-0.1385855227708816,L,False,True,3,R,200,,0.218,RightResponse,correct,True,11.0
146,152,1290.7406666666666,2935,1290.729,1290.738,1290.745,0.6859322700585145,58.237782730094544,0.6783616184256971,55.89469528198242,0.9121240079402924,81.46622467041016,-0.101629689335823,-16.35305404663086,0.0584379807114601,3.834237813949585,L,False,True,3,R,0,,0.388,RightResponse,correct,True,23.0
147,153,1293.8216666666665,2944,1293.609,1293.614,1293.62,0.5388510694378841,57.8103712277108,0.5183125883340836,54.57999038696289,0.6986986994743347,70.97855377197266,-0.1473517417907714,-19.054229736328125,0.0381112843751907,3.811103582382202,L,False,True,3,R,200,,0.221,LeftResponse,incorrect,True,10.0
148,154,1297.0316666666665,2952,1296.968,1296.972,1296.977,0.2414949450884821,25.67752657697535,0.2413746379315853,25.638845443725582,0.2769365608692169,31.55096435546875,-0.0076218545436859,-1.4088915586471558,0.0990870893001556,10.347542762756348,L,False,True,3,L,50,,0.254,LeftResponse,correct,True,10.0
149,155,1300.3916666666667,2961,1300.382,1300.387,1300.393,0.5647094921403286,53.45940685926808,0.503034234046936,50.0958366394043,0.6428142786026001,61.69471740722656,-0.2566191144287586,-18.6632080078125,-0.1676891297101974,-14.135712623596191,L,False,True,3,L,0,,0.315,LeftResponse,correct,True,22.0
150,156,1303.8016666666665,8534,1303.39,1303.392,1303.396,0.1796572195748921,24.12119559102195,-0.177851989865303,-23.651994705200195,-0.269316017627716,-34.50764083862305,0.0254044532775878,4.734471797943115,0.0609747171401977,6.143667697906494,L,False,True,3,R,400,,0.238,LeftResponse,incorrect,True,17.0
151,157,1307.2446666666665,8543,1307.133,1307.138,1307.143,0.4035321314378799,44.87879883679995,-0.3988982459995895,-44.440128326416016,-0.2769252955913543,-34.759639739990234,-0.0609784424304962,-6.259519100189209,-0.1626058369874954,-12.126198768615724,L,False,True,3,L,100,,0.286,LeftResponse,correct,True,18.0
152,158,1311.5366666666666,2986,1311.126,1311.131,1311.136,0.2854821658480414,30.410823045628444,0.2744024582207203,28.317916870117188,0.4166860580444336,41.50704193115234,-0.0787613987922668,-11.086647033691406,0.0101630389690399,0.1847829967737198,L,False,True,3,R,400,,0.308,RightResponse,correct,True,20.0
153,159,1314.7966666666666,8559,1314.382,1314.387,1314.392,0.4018041542905642,46.87663953620998,-0.3887392282485962,-46.14983367919922,-0.2362797856330871,-29.51764488220215,0.101628690958023,8.222662925720215,0.0660577714443206,2.9564414024353027,L,False,True,3,L,400,,0.249,LeftResponse,correct,True,19.0
154,160,1456.2806666666665,8661,1456.216,1456.222,1456.227,0.3844969521228309,38.08807374702627,-0.3734591603279114,-37.34563827514648,-0.2718593552708626,-32.89093017578125,-0.0914667248725891,-7.483626365661621,-0.3023502416908741,-31.897920608520508,L,False,True,4,R,50,,0.342,RightResponse,correct,True,9.0
155,161,1460.0906666666665,3124,1460.031,1460.037,1460.043,0.5387403336626754,52.58194006921149,0.5386444628238678,52.52490615844727,0.60976601857692,62.57059860229492,-0.0101631581783294,-2.4483983516693115,-0.0127039728686213,0.4157662987709045,L,False,True,4,L,50,,0.331,RightResponse,incorrect,True,8.0
156,162,1463.1636666666666,3132,1463.056,1463.059,1463.062,0.2251565076373065,27.45630480933658,0.1702314689755439,21.59653854370117,0.3506284952163696,43.97868728637695,-0.1473658708855509,-16.954002380371094,-0.2108855620026588,-25.246217727661133,L,False,True,4,R,100,,0.251,RightResponse,correct,True,17.0
157,163,1466.9146666666666,3135,1466.503,1466.508,1466.513,0.3894089394410039,42.534798552226775,0.388736966997385,42.52320098876953,0.5157709829509258,50.306884765625,-0.0228668451309204,-0.993209719657898,-0.1930931210517883,-8.407400131225586,L,False,True,4,R,400,,0.357,RightResponse,correct,True,18.0
158,164,1470.3496666666665,8697,1470.327,1470.332,1470.337,0.4583573466237202,51.1489122953197,-0.3531682416796684,-40.42149353027344,-0.175313975661993,-22.91323471069336,-0.2921705842018127,-31.341890335083008,-0.2743691205978393,-23.972492218017575,L,False,True,4,L,0,,0.295,LeftResponse,correct,True,21.0
159,165,1473.9426666666666,8706,1473.832,1473.839,1473.846,0.6530971472381755,58.46390135036778,-0.6529735773801804,-56.63580703735352,-0.7164944112300873,-57.28302764892578,-0.0127039747312664,-14.505623817443848,-0.0431927889585495,-13.48910427093506,L,False,True,4,L,100,,0.298,LeftResponse,correct,True,16.0
160,166,1477.5016666666666,8717,1477.288,1477.295,1477.3,0.4840067829696002,50.485734662001526,-0.4801505208015442,-50.18557357788086,-0.3226730525493622,-42.70738983154297,-0.0609757602214813,-5.497054576873779,-0.1626088693737983,-15.729626655578612,L,False,True,4,R,200,,0.274,RightResponse,correct,True,13.0
161,167,1480.5826666666665,8725,1480.37,1480.376,1480.381,0.4841233377798578,48.92092532821719,-0.4370088493451476,-46.172359466552734,-0.3074339106678962,-37.25701522827149,-0.2083234786987304,-16.166946411132812,-0.1549788117408752,-11.73310661315918,L,False,True,4,R,200,,0.294,RightResponse,correct,True,12.0
162,168,1483.9806666666666,8732,1483.766,1483.768,1483.774,0.2558601775812544,28.04236595100016,-0.2159671112895012,-21.41195297241211,-0.1194172399118542,-14.20534324645996,0.1371956169605255,18.10807991027832,-0.0076221525669097,0.6236294507980347,L,False,True,4,L,200,,0.343,LeftResponse,correct,True,11.0
163,169,1489.2806666666665,8744,1488.867,1488.872,1488.877,0.4141039668790176,48.58847842537585,-0.4014404155313968,-46.611366271972656,-0.2667777091264725,-32.12871551513672,-0.1016252338886261,-13.71935749053955,-0.0635197833180427,-7.091116428375244,L,False,True,4,L,400,,0.201,LeftResponse,correct,True,17.0
164,170,1493.0976666666666,8755,1492.884,1492.889,1492.894,0.4147338143167716,43.750257077810645,-0.3836545306257903,-41.83016204833984,-0.2210396826267242,-26.076679229736328,-0.1575224995613098,-12.818835258483888,-0.1727734440937638,-12.357483863830566,L,False,True,4,L,200,,0.276,LeftResponse,correct,True,10.0
165,171,1496.4366666666665,3199,1496.377,1496.382,1496.386,0.3563346223837583,42.48442501084837,0.3506278172135353,42.15388107299805,0.421769455075264,41.41482162475586,0.063517689704895,5.289298534393311,-0.0152445584535598,-1.5013574361801147,L,False,True,4,L,50,,0.352,RightResponse,incorrect,True,11.0
166,172,1499.5926666666667,8773,1499.478,1499.484,1499.49,0.6084235567369446,62.61863579990208,-0.6072289226576686,-62.57075881958008,-0.4547684490680694,-47.3712158203125,0.0381085276603698,2.4482014179229736,0.0406526029109954,5.751428604125977,L,False,True,4,L,100,,0.378,LeftResponse,correct,True,15.0
167,173,1503.2486666666666,8783,1502.828,1502.83,1502.834,0.2280060012158538,28.727699574867685,-0.2210486344993114,-28.47993850708008,-0.1600671112537384,-20.6955623626709,0.0558948814868927,3.764814138412476,0.0508135259151458,7.876100063323975,L,False,True,4,R,400,,0.389,RightResponse,correct,True,16.0
168,174,1506.4836666666665,8794,1506.419,1506.425,1506.43,0.5256593304357305,52.662497884353,-0.503074049949646,-52.01674270629883,-0.2947238981723785,-36.72499465942383,-0.1524277925491333,-8.221749305725098,-0.0457341149449348,-6.744626998901367,L,False,True,4,R,50,,0.369,RightResponse,correct,True,14.0
169,175,1509.4186666666665,8800,1509.354,1509.359,1509.363,0.3123096898833142,32.754343129201985,-0.3099760338664055,-32.452789306640625,-0.292187612503767,-32.72963333129883,-0.0381077527999877,-4.43435001373291,-0.0381101071834564,-4.919656753540039,L,False,True,4,R,50,,0.305,RightResponse,correct,True,13.0
170,176,1514.1146666666666,3235,1513.706,1513.71,1513.714,0.2841358963990985,32.700176932128606,0.2769454233348369,31.66741180419922,0.4420944675803184,43.3779525756836,-0.0635172426700592,-8.153318405151367,-0.0330302044749259,-1.8247461318969729,L,False,True,4,L,400,,0.251,LeftResponse,correct,True,15.0
171,177,1517.3666666666666,8818,1517.255,1517.26,1517.265,0.4385877411814526,45.545739344625005,-0.3912638276815414,-41.50519561767578,-0.3226720690727234,-35.31612014770508,-0.1981711983680725,-18.754549026489254,-0.0558974370360374,-3.210638999938965,L,False,True,4,R,100,,0.341,RightResponse,correct,True,14.0
172,178,1520.6016666666665,8825,1520.487,1520.493,1520.499,0.5250163822416783,63.34965325068384,-0.5208442397415638,-62.61679458618164,-0.5081316828727722,-56.77272415161133,-0.0660566389560699,-9.60810089111328,0.0914645791053772,8.615201950073242,L,False,True,4,R,100,,0.216,RightResponse,correct,True,13.0
173,179,1524.2986666666666,8834,1524.088,1524.094,1524.1,0.5028411253586114,50.8270921665988,-0.4878296852111816,-47.997745513916016,-0.3937867283821106,-40.23346328735352,-0.1219483315944671,-16.721534729003906,-0.0940077155828476,-6.906198501586914,L,False,True,4,R,200,,0.291,RightResponse,correct,True,9.0
174,181,1530.4146666666666,8850,1530.398,1530.404,1530.411,0.726763605587425,71.7363914212982,-0.6809229999780655,-69.4322738647461,-0.462393045425415,-44.9464111328125,-0.2540259957313537,-18.03522109985352,-0.2591601274907589,-16.214771270751953,L,False,True,4,R,0,,0.243,RightResponse,correct,True,20.0
175,182,1534.3656666666666,11386,1533.958,1533.962,1533.966,0.3511854872876955,41.21361244570859,0.1829370409250259,19.887475967407227,0.3887355646584183,41.206539154052734,-0.2997753918170929,-36.09778594970703,-0.2362896353006363,-21.52705192565918,L,False,True,4,L,400,,0.227,LeftResponse,correct,True,14.0
176,183,1537.5626666666665,8870,1537.548,1537.553,1537.558,0.5287753154192533,53.29356938351081,-0.4979718178510666,-51.46038055419922,-0.4039634764194488,-42.35971832275391,-0.1778409481048584,-13.857625007629396,-0.1549883149564266,-13.74338436126709,L,False,True,4,L,0,,0.321,RightResponse,incorrect,True,19.0
177,184,1540.9146666666666,8877,1540.701,1540.706,1540.711,0.3991053755966914,44.74356543476913,-0.3989031463861465,-44.74093627929688,-0.4573295973241329,-48.25056457519531,-0.0127035677433013,-0.4850450158119201,-0.0711419731378555,-5.936197757720947,L,False,True,4,R,200,,0.354,RightResponse,correct,True,11.0
178,185,1544.4036666666666,11403,1543.989,1543.995,1543.997,0.2153694078557995,22.431575715519383,0.0635195598006248,5.728302955627441,0.2845626324415207,25.19938087463379,-0.2057893276214599,-21.687833786010746,-0.1651515439152717,-23.23669815063477,L,False,True,4,R,400,,0.394,RightResponse,correct,True,13.0
179,186,1547.8006666666665,8903,1547.687,1547.693,1547.698,0.4903679929390908,50.569880329593055,-0.4598758555948734,-47.44279098510742,-0.33792136143893,-33.74592208862305,-0.1702203452587127,-17.506980895996094,-0.1143338680267334,-11.294803619384766,L,False,True,4,L,100,,0.371,LeftResponse,correct,True,12.0
180,187,1551.2436666666665,3324,1551.133,1551.139,1551.146,0.5716722011566162,56.02797386954555,0.5716722011566162,56.01250457763672,0.5564288944005966,49.29107666015625,0.0,1.3165055513381958,-0.0406527142040431,-3.5571117401123047,L,False,True,4,L,100,,0.37,LeftResponse,correct,True,11.0
181,188,1554.4786666666666,8923,1554.368,1554.373,1554.379,0.6629879826110209,77.97118803159842,-0.604701578617096,-74.81391143798828,-0.553884394466877,-55.61944580078125,-0.2718254327774048,-21.96326065063477,-0.1626047790050506,-21.24954605102539,L,False,True,4,R,100,,0.249,RightResponse,correct,True,10.0
182,189,1557.4056666666665,3340,1557.396,1557.4,1557.405,0.4659916487315318,53.88685542944678,0.4116031564772129,47.235111236572266,0.5259387195110321,57.21355819702149,-0.2184743881225586,-25.93525505065918,-0.2286660075187683,-12.403325080871582,L,False,True,4,R,0,,0.253,LeftResponse,incorrect,True,22.0
183,190,1560.8566666666666,8941,1560.792,1560.799,1560.805,0.7897642600884641,78.65105311649498,-0.7494900310412049,-72.9393310546875,-0.5614744275808334,-62.73036575317383,0.2489824891090393,29.425195693969727,0.193100169301033,1.2242008447647097,L,False,True,4,R,50,,0.253,RightResponse,correct,True,12.0
184,191,1564.0796666666665,8951,1564.068,1564.07,1564.073,0.180680166265584,22.06020706238827,-0.180394172668457,-22.0584659576416,-0.213417112827301,-31.20428276062012,0.0101619362831115,0.2771556079387665,-0.0558972731232643,-6.698432922363281,L,False,True,4,R,0,,0.371,RightResponse,correct,True,25.0
185,192,1568.2096666666666,3361,1567.996,1568.003,1568.008,0.5070917887324627,54.28963142662348,0.5005317330360413,52.66335678100586,0.6580565422773361,62.15633010864258,-0.0813023149967193,-13.18843936920166,0.0940091460943222,6.629149913787842,L,False,True,4,L,200,,0.247,LeftResponse,correct,True,10.0
186,193,1572.0486666666666,3368,1571.986,1571.995,1572.002,1.175648032200172,104.76793721610848,1.173790693283081,104.5849151611328,1.3211075365543363,110.8614501953125,-0.066058337688446,-6.190007209777832,0.0762237892486155,13.512349128723145,L,False,True,4,L,50,,0.394,LeftResponse,correct,True,11.0
187,194,1577.2026666666666,8976,1576.789,1576.794,1576.798,0.3636603083348079,42.04480515904288,-0.3607730716466903,-41.80533599853516,-0.2261258661746978,-28.89516258239746,-0.045734129846096,-4.48101806640625,-0.0787644945085048,-7.483784675598144,L,False,True,4,L,400,,0.34,LeftResponse,correct,True,12.0
188,195,1580.7786666666666,8987,1580.762,1580.767,1580.773,0.5859741873745856,55.14198058828738,-0.5437144874595106,-52.10806274414063,-0.2362870723009109,-19.956298828125,-0.2184955477714538,-18.038509368896484,-0.0228671059012413,-2.1943185329437256,L,False,True,4,L,0,,0.239,LeftResponse,correct,True,24.0
189,196,1583.7806666666665,8997,1583.773,1583.778,1583.783,0.4010212266106034,43.728727567295806,-0.3963582711294293,-43.631778717041016,-0.4446267709136009,-33.88408279418945,0.0609765946865081,2.910240650177002,0.0406525284051895,5.4511308670043945,L,False,True,4,R,0,,0.276,RightResponse,correct,True,23.0
190,197,1587.3236666666667,3403,1587.262,1587.268,1587.273,0.5447144912635324,61.99939673809584,0.5437121242284775,61.970458984375,0.3556946516036987,40.858848571777344,-0.0330303339287638,-1.89404571056366,0.0889272987842559,7.114180088043213,L,False,True,4,L,50,,0.394,LeftResponse,correct,True,10.0
191,198,1590.6166666666666,3410,1590.205,1590.21,1590.215,0.3637775071215571,39.5870201607404,0.3201392590999603,37.996341705322266,0.3302977308630943,37.53375625610352,-0.1727568507194519,-11.109013557434082,0.0101631581783294,3.60329270362854,L,False,True,4,R,400,,0.212,RightResponse,correct,True,11.0
192,199,1593.6566666666665,9024,1593.642,1593.646,1593.65,0.2146457162084244,27.179563277423803,-0.2058025933802127,-25.846582412719727,-0.2540610730648041,-29.309459686279297,0.0609760284423828,8.407308578491211,0.0838461741805076,9.054462432861328,L,False,True,4,L,0,,0.332,LeftResponse,correct,True,22.0
193,200,1717.5046666666665,3508,1717.495,1717.497,1717.501,0.1620704149912074,19.83146907563708,0.1600664108991623,19.60984230041504,0.2566191554069519,35.15522766113281,-0.0254079420119524,-2.956560611724853,0.1270394064486026,16.006961822509766,L,False,True,5,L,0,,0.262,LeftResponse,correct,True,21.0
194,201,1722.2006666666666,9107,1722.086,1722.092,1722.095,0.2876364048954221,30.3796690011818,-0.2718402147293091,-29.67823600769043,-0.307435117661953,-35.825096130371094,-0.0940085053443908,-6.490500450134277,-0.1422804147005081,-19.101612091064453,L,False,True,5,L,100,,0.306,LeftResponse,correct,True,9.0
195,202,1725.5106666666666,3523,1725.448,1725.452,1725.456,0.2972697485238313,31.520484775515676,0.2972697485238313,31.50555229187012,0.2083439007401466,25.084400177001957,0.0,0.9701212644577026,0.2058037500828504,23.421443939208984,L,False,True,5,R,50,,0.381,RightResponse,correct,True,9.0
196,203,1730.0986666666665,9123,1729.677,1729.681,1729.686,0.3962095899731374,43.56822187571901,-0.3836192190647125,-42.10345077514648,-0.2235877551138401,-23.606103897094727,-0.099087506532669,-11.202204704284668,-0.0686013475060463,-5.497353076934815,L,False,True,5,R,400,,0.333,RightResponse,correct,True,10.0
197,204,1735.1196666666665,3541,1735.009,1735.014,1735.019,0.3349680899555832,34.465209342741204,0.3302712440490722,33.558536529541016,0.251535914838314,30.327613830566406,-0.0558974654413759,-7.853361129760742,0.1194166764616966,9.42397689819336,L,False,True,5,L,100,,0.205,LeftResponse,correct,True,8.0
198,205,1738.2756666666667,9146,1738.062,1738.067,1738.071,0.4195785278142501,45.93330294391434,-0.3937917649745941,-43.55963897705078,-0.3277577757835388,-37.18748092651367,-0.1448246762156486,-14.574847221374512,-0.1499066012911498,-20.002944946289062,L,False,True,5,R,200,,0.231,RightResponse,correct,True,9.0
199,206,1742.6966666666665,9155,1742.682,1742.688,1742.693,0.4860991300790391,57.56228400785536,-0.4624077603220939,-54.32475280761719,-0.3760270401835441,-45.54829788208008,-0.149904727935791,-19.03254508972168,-0.1829359196126461,-22.05858421325684,L,False,True,5,L,0,,0.341,RightResponse,incorrect,True,20.0
200,207,1745.8776666666665,9161,1745.663,1745.667,1745.671,0.2946521859136685,31.908792933905094,-0.2921770960092544,-31.227251052856445,-0.2159670852124691,-26.378013610839844,0.0381110906600952,6.559714794158936,-0.0533565729856491,-7.645466804504394,L,False,True,5,L,200,,0.334,LeftResponse,correct,True,8.0
201,208,1748.7216666666666,3565,1748.661,1748.663,1748.668,0.2295567314042003,28.461244095315333,0.2286551892757415,27.96985244750977,0.2642349749803543,32.2208366394043,-0.0203247964382171,5.26590633392334,-0.0635183453559875,-1.039364218711853,L,False,True,5,L,50,,0.236,LeftResponse,correct,True,8.0
202,209,1752.4266666666665,9182,1752.415,1752.42,1752.426,0.4608836187147161,49.529510434505085,-0.4598740041255951,-48.15867233276367,-0.3836541792843491,-37.395484924316406,-0.0304895117878913,-11.572151184082031,-0.1346620321273803,-14.80589771270752,L,False,True,5,R,0,,0.316,RightResponse,correct,True,23.0
203,210,1756.4406666666666,9194,1756.223,1756.229,1756.235,0.3722563704235062,32.71233189791452,-0.3684131279587745,-32.475833892822266,-0.2896450757980346,-27.440200805664062,-0.0533532798290252,3.9264323711395264,-0.1016295552253723,-12.14934539794922,L,False,True,5,L,200,,0.291,RightResponse,incorrect,True,7.0
204,211,1762.7026666666666,3597,1762.292,1762.296,1762.301,0.3877493337950995,47.0645171354636,0.3785770833492279,45.2722053527832,0.5081532597541809,52.54772186279297,0.0838387608528137,12.864532470703123,0.2007183730602264,18.016218185424805,L,False,True,5,L,400,,0.266,RightResponse,incorrect,True,9.0
205,212,1766.4696666666666,9210,1766.396,1766.4,1766.404,0.3075096309514062,33.71830569700291,-0.2972531020641327,-32.63552474975586,-0.1753047108650207,-17.646005630493164,-0.078757643699646,-8.476241111755371,-0.0813052356243133,-8.777264595031738,L,False,True,5,R,50,,0.368,RightResponse,correct,True,7.0
206,213,1770.1966666666665,9219,1769.985,1769.991,1769.996,0.4524790174668768,46.11082768034496,-0.411575585603714,-39.91010284423828,-0.3328377231955528,-38.11116409301758,-0.1879968047142028,-23.09528350830078,-0.1803934425115585,-12.010733604431152,L,False,True,5,R,200,,0.319,RightResponse,correct,True,10.0
207,214,1773.3936666666666,9228,1773.283,1773.288,1773.293,0.3993702168127578,42.820071663478295,-0.3810995817184448,-42.544464111328125,-0.2566062211990356,-30.97286605834961,-0.1194138973951339,-4.850475311279297,-0.2134210616350174,-26.100210189819336,L,False,True,5,R,100,,0.344,RightResponse,correct,True,7.0
208,215,1778.1896666666667,9237,1777.779,1777.781,1777.784,0.213788998035844,24.952046926148984,-0.2134112119674682,-24.94425201416016,-0.2108631134033203,-28.26909828186035,-0.0127039477229118,-0.6236483454704285,-0.0101628303527832,0.3002664148807525,L,False,True,5,R,400,,0.206,RightResponse,correct,True,12.0
209,216,1781.7036666666665,3640,1781.642,1781.646,1781.649,0.137578274652296,18.94087138808788,0.1372024528682232,18.68632698059082,0.3938189297914505,46.42681121826172,-0.0101621150970458,-3.09480094909668,0.0,-3.695394277572632,L,False,True,5,L,50,,0.209,RightResponse,incorrect,True,6.0
210,217,1785.9046666666666,3645,1785.493,1785.5,1785.506,0.555094775229965,52.04779637659804,0.5437206625938416,51.78535461425781,0.6707616448402405,67.9075927734375,0.1117946803569793,5.220168113708496,-0.0254064798355102,-6.9059906005859375,L,False,True,5,L,400,,0.314,LeftResponse,correct,True,11.0
211,218,1788.7606666666666,9263,1788.748,1788.753,1788.756,0.3000965687907698,28.8570629219884,-0.2642290890216827,-26.58452606201172,-0.2464501559734344,-29.98050880432129,-0.1422706544399261,-11.22466278076172,-0.2693178355693817,-30.373353958129883,L,False,True,5,L,0,,0.246,RightResponse,incorrect,True,22.0
212,219,1791.7996666666666,9269,1791.733,1791.738,1791.744,0.5731120409976271,58.41536315776638,-0.5665650516748428,-58.01936721801758,-0.4878092557191849,-44.43911743164063,-0.0863797068595886,-6.790263652801514,-0.0940085798501968,-8.823394775390625,L,False,True,5,L,50,,0.287,LeftResponse,correct,True,9.0
213,220,1794.9396666666667,9278,1794.923,1794.93,1794.935,0.5945171443620462,63.3964223479064,-0.4725631475448608,-47.76420211791992,-0.3404603265225887,-36.10172271728516,-0.3607418835163116,-41.685577392578125,-0.1905568912625312,-6.259513378143311,L,False,True,5,R,0,,0.378,RightResponse,correct,True,25.0
214,221,1798.1496666666665,9287,1797.925,1797.93,1797.935,0.342316057855093,35.23563755333597,-0.3125032782554626,-33.814083099365234,-0.3201251477003097,-28.66356658935547,-0.1397210955619812,-9.907468795776367,-0.1829360276460647,-19.448457717895508,L,False,True,5,L,200,,0.391,LeftResponse,correct,True,9.0
215,222,1802.2796666666666,9295,1802.217,1802.222,1802.228,0.5939739367369365,63.30209946587783,-0.5893868207931519,-63.16543960571289,-0.5410733222961426,-61.5434684753418,0.0736764073371887,4.157287120819092,-0.1219561249017715,-17.71608543395996,L,False,True,5,L,50,,0.284,RightResponse,incorrect,True,8.0
216,223,1806.2016666666666,3685,1806.193,1806.196,1806.199,0.1615925781916229,19.683023385388054,0.1549861282110214,19.26353073120117,0.2464546672999858,29.357437133789062,-0.0457324981689453,-4.042003631591797,-0.040652610361576,-5.312557220458984,L,False,True,5,L,0,,0.227,LeftResponse,correct,True,24.0
217,224,1809.3816666666667,9306,1809.17,1809.175,1809.179,0.2694799150758194,31.505564036736835,-0.2667717635631561,-31.412092208862305,-0.3455204367637634,-38.68634033203125,0.0381084084510803,2.42508316040039,-0.1651512235403061,-14.366994857788086,L,False,True,5,L,200,,0.32,RightResponse,incorrect,True,8.0
218,225,1813.3666666666666,9316,1812.956,1812.962,1812.967,0.4605186031042722,52.47112265414643,-0.4598172008991241,-52.47093963623047,-0.3150306940078735,-43.02807235717773,-0.0254071950912475,-0.1385867148637771,-0.1270387396216392,-12.680739402770996,L,False,True,5,R,400,,0.316,RightResponse,correct,True,10.0
219,226,1816.5016666666666,5667,1816.088,1816.094,1816.106,0.892738024895639,77.47520093315065,-0.3201377689838409,-47.99684143066406,-0.4319259077310562,-50.32836532592773,0.8333624601364136,60.817020416259766,0.9553083777427672,68.50667572021484,L,False,True,5,L,400,,0.211,LeftResponse,correct,True,9.0
220,227,1820.1736666666666,9333,1820.057,1820.063,1820.068,0.4925256685548321,56.12020206862599,-0.4649100303649902,-53.1421012878418,-0.309956282377243,-36.284629821777344,-0.162604421377182,-18.038684844970703,-0.2744051665067673,-17.83173942565918,L,False,True,5,R,100,,0.257,RightResponse,correct,True,6.0
221,228,1823.7286666666666,9340,1823.705,1823.711,1823.715,0.4002910588494939,45.32439773689779,-0.383617103099823,-42.54182052612305,-0.2845461070537567,-28.662334442138672,-0.1143278181552887,-15.63632106781006,-0.1219580038450658,-12.080317497253418,L,False,True,5,R,0,,0.327,LeftResponse,incorrect,True,23.0
222,229,1827.8966666666665,9349,1827.682,1827.688,1827.693,0.5600145778872233,58.67453361860088,-0.528412401676178,-53.787994384765625,-0.350584864616394,-43.71916961669922,-0.1854633688926696,-23.442537307739254,-0.3607884286902845,-37.00278854370117,L,False,True,5,R,200,,0.38,RightResponse,correct,True,11.0
223,230,1831.1486666666665,9360,1831.035,1831.042,1831.048,0.6124739633621652,62.39401499745436,-0.5740903615951538,-60.318355560302734,-0.4369849264621734,-54.34598159790039,-0.2134118378162384,-15.95960807800293,-0.3277616500854492,-32.984073638916016,L,False,True,5,L,100,,0.356,RightResponse,incorrect,True,5.0
224,231,1834.4576666666665,9371,1834.342,1834.348,1834.353,0.4528138562948833,48.67350860843214,-0.4522361010313034,-48.36469268798828,-0.3124817311763763,-27.945409774780277,-0.0228669494390487,-5.474206924438477,-0.1549863368272781,-15.429338455200195,L,False,True,5,R,100,,0.311,RightResponse,correct,True,8.0
225,232,1837.8716666666667,9379,1837.46,1837.465,1837.47,0.4124695321435955,58.26299598507068,-0.4090043306350708,-56.92756652832031,-0.2515317946672439,-29.44921112060547,-0.0533532798290252,-12.402776718139648,-0.0838459841907024,-7.760952472686768,L,False,True,5,L,400,,0.207,LeftResponse,correct,True,8.0
226,233,1841.0116666666665,9387,1841.0,1841.005,1841.01,0.4702607944173573,52.09306229826036,-0.4700136482715606,-52.03657913208008,-0.3963474035263061,-40.37413024902344,0.01524418592453,-2.4251952171325684,-0.1422794163227081,-13.81206512451172,L,False,True,5,R,0,,0.22,RightResponse,correct,True,26.0
227,234,1844.3166666666666,9402,1844.251,1844.258,1844.264,0.4604388863065757,42.489180372508976,-0.4573378413915634,-42.38460540771485,-0.3709360808134079,-40.46611785888672,0.0533485412597656,2.9792068004608154,0.1117874383926391,11.017230033874512,L,False,True,5,R,50,,0.393,RightResponse,correct,True,11.0
228,235,1847.8556666666666,9412,1847.644,1847.651,1847.657,0.7021072055156926,66.12870521310283,-0.6935561001300812,-65.5218505859375,-0.5969856977462769,-63.764137268066406,-0.1092449724674224,-8.938274383544922,-0.0711401998996734,-6.328656196594238,L,False,True,5,R,200,,0.348,RightResponse,correct,True,10.0
229,236,1850.8206666666665,9420,1850.708,1850.711,1850.716,0.3681226207106784,42.36885003249659,-0.3658720329403877,-42.315555572509766,-0.5233957841992378,-57.81399154663086,-0.0406438112258911,2.124431610107422,0.0,-1.524255633354187,L,False,True,5,L,100,,0.248,RightResponse,incorrect,True,7.0
230,237,1854.0296666666666,9428,1853.918,1853.923,1853.928,0.4968457862980519,54.02209994250927,-0.4852513372898102,-53.514102935791016,-0.4598496109247207,-50.026954650878906,0.1067093014717102,7.391080379486084,-0.0152446925640106,-5.08155632019043,L,False,True,5,R,100,,0.363,RightResponse,correct,True,10.0
231,238,1857.5526666666665,9439,1857.488,1857.495,1857.5,0.7831731376412668,73.37095930614964,-0.7266377359628677,-70.33073425292969,-0.4573050439357757,-48.59459686279297,-0.2921605110168457,-20.901805877685547,-0.215963527560234,-25.68452453613281,L,False,True,5,R,50,,0.392,RightResponse,correct,True,10.0
232,239,1861.2616666666665,9448,1860.846,1860.851,1860.858,0.4764312714383013,41.94892695781834,-0.4014382483437657,-39.91302108764648,-0.3251992166042328,-28.847936630249023,-0.2565815448760986,-12.90981101989746,0.002540647983551,-6.143665790557861,L,False,True,5,R,400,,0.282,RightResponse,correct,True,7.0
