,trialIndex,targetOnsetTime,Unnamed: 0,startTime,peakVelocityTime,stopTime,amplitude,peakVelocity,saccade_vec_left_x,peak_velocity_vec_left_x,saccade_vec_right_x,peak_velocity_vec_right_x,saccade_vec_left_y,peak_velocity_vec_left_y,saccade_vec_right_y,peak_velocity_vec_right_y,whichEye,otherEyeMissingData,isBinocular,blockId,arrowDirection,latency,blankDuration,fixationDurationInSec,response,result,isSaccade,blankDurationInFrameCount
0,0,209.55166666666668,3851,209.49,209.496,209.5,0.4628545373909818,50.318688100225074,-0.4420823156833648,-47.049072265625,-0.3404185175895691,-31.20151710510254,-0.1371041536331176,-17.842510223388672,-0.1676798164844513,-13.788565635681152,L,False,True,0,L,50,,0.34,LeftResponse,correct,True,2.0
1,1,214.53466666666668,3856,214.524,214.532,214.537,0.6431673603837094,53.38510296734874,-0.6402725279331207,-52.547393798828125,-0.6173654496669769,-54.92459487915039,-0.0609536170959472,-9.4202241897583,-0.1219581142067909,-9.123762130737305,L,False,True,0,R,0,,0.218,LeftResponse,incorrect,True,2.0
2,2,219.7266666666667,3864,219.61,219.618,219.624,0.5834512192808838,43.23253350112739,-0.5488007888197899,-43.05403518676758,-0.3480595350265503,-39.287147521972656,-0.1980732679367065,-3.924539089202881,-0.19052654504776,-18.84470558166504,L,False,True,0,L,100,,0.379,RightResponse,incorrect,True,2.0
3,3,224.9226666666667,3875,224.911,224.918,224.924,0.4845260869086751,49.99798010390454,-0.4776627346873283,-49.31397247314453,-0.3861642479896545,-43.53669738769531,-0.0812640190124511,-8.241973876953125,-0.0304890424013137,-4.06521463394165,L,False,True,0,R,0,,0.332,LeftResponse,incorrect,True,5.0
4,4,229.4226666666667,3880,229.012,229.019,229.024,0.6011524759286633,57.47563121944437,-0.5538860559463501,-52.50167846679688,-0.5284751206636429,-53.2866439819336,-0.2336547374725341,-23.388500213623047,-0.1600696870591491,-9.470223426818848,L,False,True,0,R,400,,0.225,LeftResponse,incorrect,True,2.0
5,5,234.05266666666668,3888,233.64,233.647,233.654,0.679548751508684,59.62983550246894,-0.6758183045312762,-59.42863082885742,-0.6021615266799927,-68.80854034423828,-0.0711064338684082,-4.894396781921387,-0.0177849531173706,0.762212336063385,L,False,True,0,R,400,,0.36,LeftResponse,incorrect,True,5.0
6,6,239.29466666666667,3901,239.081,239.086,239.092,0.4172678271037945,41.68880885813423,-0.411601017229259,-41.41423416137695,-0.3175984025001526,-39.4976806640625,-0.0685349702835083,-4.77681827545166,-0.1549833714962005,-11.525479316711426,L,False,True,0,R,200,,0.251,LeftResponse,incorrect,True,2.0
7,7,244.36566666666667,3910,244.306,244.311,244.317,0.4694125641109439,52.13640237254442,-0.4344700686633587,-50.00678253173828,-0.541175402700901,-57.02791213989258,-0.1777186393737793,-14.748767852783203,-0.2515288144350052,-26.562009811401367,L,False,True,0,R,50,,0.252,RightResponse,correct,True,1.0
8,8,249.36966666666666,3917,248.955,248.962,248.97,0.6544131426623883,57.05738397714301,-0.6351920962333679,-55.68925857543945,-0.5437128627672791,-52.22293472290039,-0.1574406623840332,-12.419804573059082,-0.132121279835701,-6.860145568847656,L,False,True,0,L,400,,0.2,RightResponse,incorrect,True,8.0
9,9,253.77066666666667,3925,253.759,253.765,253.771,0.7065508282738228,75.07393678923059,-0.7063273787498474,-74.69835662841797,-0.7876316905021667,-81.09625244140625,0.0177681446075439,-7.500100135803223,-0.172772578895092,-15.72971534729004,L,False,True,0,R,0,,0.207,RightResponse,correct,True,8.0
10,10,259.2656666666667,3931,259.152,259.161,259.167,0.7616766649202604,72.43630243614822,-0.7594324946403503,-69.38336181640625,-0.6123240739107132,-65.45947265625,-0.0584262609481811,-20.807859420776367,-0.063517689704895,0.207876056432724,L,False,True,0,R,100,,0.347,LeftResponse,incorrect,True,5.0
11,11,264.44166666666666,3936,264.228,264.235,264.243,0.6837576679869073,62.93324608828934,-0.6453209593892097,-58.43515396118164,-0.5335593149065971,-51.73931503295898,-0.2260208129882812,-23.36506462097168,-0.2921878434717655,-22.358577728271484,L,False,True,0,R,200,,0.355,RightResponse,correct,True,5.0
12,12,270.54066666666665,3943,270.476,270.483,270.489,0.6864803680087267,68.72676057671134,-0.6859124302864075,-68.2451400756836,-0.622484877705574,-54.7652473449707,-0.0279183387756347,-8.122097969055176,0.1829370707273483,17.277393341064453,L,False,True,0,L,50,,0.26,RightResponse,incorrect,True,1.0
13,13,275.3536666666667,3953,275.139,275.144,275.151,0.3618961954809133,36.63405574934706,-0.3480836376547813,-35.408843994140625,-0.4065179638564586,-40.12068176269531,-0.099028468132019,-9.395094871520996,-0.2007213346660137,-16.353403091430664,L,False,True,0,R,200,,0.34,RightResponse,correct,True,4.0
14,14,281.0486666666667,3960,280.637,280.642,280.647,0.3252298832233416,31.936909055663616,-0.3252199664711952,-31.92147254943848,-0.3353759869933128,-38.50363540649414,-0.0025397539138793,0.992849588394165,-0.0381118971854448,-5.497352600097656,L,False,True,0,L,400,,0.393,LeftResponse,correct,True,11.0
15,15,286.02066666666667,3968,285.61,285.616,285.623,0.5428786939637533,51.70193173411475,-0.54115891456604,-51.62130355834961,-0.6477935016155243,-64.8031005859375,0.0431776046752929,2.8863062858581543,-0.0635091066360473,-3.556580781936645,L,False,True,0,L,400,,0.352,LeftResponse,correct,True,10.0
16,16,291.2576666666667,3980,291.243,291.25,291.257,0.7215971596952008,65.9338418264145,-0.7190176770091057,-63.979827880859375,-0.673302948474884,-72.29639434814453,-0.0609593391418457,-15.932768821716309,-0.0762192606925964,-3.1411728858947754,L,False,True,0,R,0,,0.329,RightResponse,correct,True,7.0
17,17,296.1326666666667,3986,295.921,295.925,295.93,0.3618284355914966,41.831495420867405,-0.3582458831369877,-40.90613555908203,-0.406513012945652,-44.34695816040039,0.050790786743164,8.74997615814209,-0.0940023362636566,-11.363393783569336,L,False,True,0,L,200,,0.261,RightResponse,incorrect,True,3.0
18,18,300.5126666666667,3998,300.497,300.502,300.511,0.5096744605907283,37.46202290406144,-0.4776665419340133,-35.1090202331543,-0.4750758409500122,-33.62821578979492,-0.1777715682983398,-13.067511558532717,-0.1143099665641784,-1.6396605968475342,L,False,True,0,L,0,,0.39,LeftResponse,correct,True,6.0
19,19,304.9796666666667,4005,304.965,304.971,304.98,0.5458513886274164,44.16714098460047,-0.5385621190071106,-43.04707336425781,-0.6046731323003769,-56.449012756347656,-0.0889077186584472,-9.88361358642578,-0.1321165561676025,-9.077259063720703,L,False,True,0,L,0,,0.223,LeftResponse,correct,True,5.0
20,20,308.43966666666665,4010,308.327,308.333,308.338,0.348785829783936,36.97589262177654,-0.3277249932289123,-33.627037048339844,-0.4268513172864914,-42.96237182617188,-0.1193645000457763,-15.37657356262207,-0.2159526944160461,-23.974262237548828,L,False,True,0,L,100,,0.216,LeftResponse,correct,True,8.0
21,21,313.3446666666667,4019,313.132,313.137,313.143,0.4148555205055276,43.36425621803797,-0.365841805934906,-42.17341613769531,-0.4192058891057968,-45.7545051574707,-0.1956140995025634,-10.092655181884766,-0.1981795504689216,-17.508222579956055,L,False,True,0,L,200,,0.353,RightResponse,incorrect,True,6.0
22,22,318.6736666666667,4028,318.613,318.62,318.626,0.6049997434047872,62.44339091051334,-0.5995138585567474,-61.8464241027832,-0.5487809479236603,-60.97492980957031,0.0812885165214538,8.613761901855469,-0.0381063222885131,-1.8013776540756226,L,False,True,0,R,50,,0.321,LeftResponse,incorrect,True,4.0
23,23,323.5076666666667,4037,323.295,323.302,323.306,0.3511156708728543,33.50274114219883,-0.2997239828109741,-27.73290634155273,-0.482647955417633,-40.435001373291016,-0.1828872561454773,-18.79679679870605,-0.1219380497932434,-15.773451805114746,L,False,True,0,L,200,,0.347,LeftResponse,correct,True,9.0
24,24,328.29966666666667,4044,328.289,328.296,328.303,0.68474608272558,66.36966415544826,-0.6782671213150024,-65.2873306274414,-0.6857685446739197,-64.23543548583984,-0.0939729213714599,-11.937201499938965,-0.1930876672267913,-14.68952751159668,L,False,True,0,L,0,,0.338,LeftResponse,correct,True,4.0
25,25,333.3706666666667,4053,333.255,333.262,333.269,0.6062439587898361,49.81662116818838,-0.5614988999441266,-47.95026397705078,-0.5081481039524078,-44.13981246948242,-0.2285841703414917,-13.508069038391112,-0.3251962959766388,-21.1567497253418,L,False,True,0,R,100,,0.262,RightResponse,correct,True,7.0
26,26,337.84566666666666,670,337.434,337.441,337.446,0.5529668213427078,55.16452572257865,0.5435524582862854,53.892765045166016,0.391262874007225,44.11507415771485,-0.1016023159027099,-11.776874542236328,-0.3150267302989959,-26.99909019470215,L,False,True,0,L,400,,0.269,RightResponse,incorrect,True,9.0
27,27,342.55466666666666,4069,342.346,342.351,342.357,0.4908133941166044,52.989554308999786,-0.4848603010177612,-51.13937377929688,-0.5637900233268738,-59.88553237915039,0.0762120485305786,13.880105018615724,-0.0508154183626174,-5.705176830291748,L,False,True,0,L,200,,0.333,RightResponse,incorrect,True,8.0
28,28,347.0966666666667,4076,346.682,346.687,346.695,0.4026672669831967,34.86981102579313,-0.4013106822967529,-34.81959533691406,-0.447076678276062,-42.12212753295898,-0.0330252051353454,1.8706954717636108,-0.2311951518058776,-13.950475692749023,L,False,True,0,R,400,,0.387,RightResponse,correct,True,12.0
29,29,351.0396666666667,4082,350.976,350.982,350.988,0.5251558306088114,52.14093670496319,-0.4976747035980224,-50.5991096496582,-0.5409397482872009,-52.20353698730469,-0.1676560044288635,-12.585999488830566,-0.002540647983551,-0.5774248242378235,L,False,True,0,L,50,,0.281,NoResponse,incorrect,True,7.0
30,30,356.3896666666667,4096,356.374,356.38,356.388,0.4116605039791927,37.44856817022152,-0.4115351438522339,-35.84186553955078,-0.3099045157432556,-37.47947692871094,0.0101585388183593,10.851540565490724,0.0863859206438064,12.88856029510498,L,False,True,0,L,0,,0.391,LeftResponse,correct,True,3.0
31,31,359.9616666666667,4107,359.847,359.853,359.86,0.7261289769543318,71.895451852854,-0.7215671688318253,-71.76431274414062,-0.6629977226257324,-68.42520904541016,0.0812656879425048,4.340439319610596,-0.1295772194862365,-6.259425640106201,L,False,True,0,L,100,,0.387,RightResponse,incorrect,True,6.0
32,32,363.5586666666667,4115,363.447,363.455,363.463,1.097412282200917,102.36078802803664,-1.0924604386091232,-102.04127502441406,-1.0361602902412417,-102.85983276367188,-0.1041340827941894,-8.081405639648438,-0.1829016208648681,-13.57906723022461,L,False,True,0,R,100,,0.36,LeftResponse,incorrect,True,9.0
33,33,367.5806666666667,4121,367.518,367.524,367.53,0.52687185831725,54.00304998779867,-0.5131700038909912,-53.58049011230469,-0.513184666633606,-50.57875061035156,0.119375467300415,6.742439270019531,0.0050815865397453,5.127767562866211,L,False,True,0,R,50,,0.3,LeftResponse,incorrect,True,10.0
34,34,370.68266666666665,754,370.272,370.279,370.285,0.893758066754221,87.1114367561143,0.8576470613479614,82.99397277832031,0.8662807941436768,87.39210510253906,-0.2514855861663818,-26.465126037597656,-0.3252121210098266,-35.15454864501953,L,False,True,0,R,400,,0.326,RightResponse,correct,True,11.0
35,35,374.11266666666666,4138,373.899,373.905,373.912,0.5365257515733197,53.56374484130507,-0.5333364009857178,-53.19431686401367,-0.5207149982452393,-56.06694793701172,0.0584137439727783,6.280080795288086,-0.050814539194107,-4.180650234222412,L,False,True,0,R,200,,0.309,RightResponse,correct,True,11.0
36,36,377.50166666666667,4145,377.438,377.444,377.451,0.5443041967821993,49.83632035561302,-0.5232623219490051,-48.0537109375,-0.612259566783905,-55.915374755859375,-0.1498786211013794,-13.209833145141602,-0.1981668472290039,-16.283042907714844,L,False,True,0,L,50,,0.395,LeftResponse,correct,True,13.0
37,37,382.5686666666667,4154,382.457,382.463,382.469,0.6952329091765383,75.22318108839431,-0.619787335395813,-67.40565490722656,-0.5130953192710876,-54.15023422241211,-0.3149800896644592,-33.391685485839844,-0.2540778794791549,-21.8737850189209,L,False,True,0,L,100,,0.321,RightResponse,incorrect,True,12.0
38,38,386.4696666666667,4163,386.357,386.362,386.369,0.5029607592845153,49.58382803818815,-0.5029351115226746,-49.577613830566406,-0.4953329563140869,-55.37663650512695,0.0050792694091796,0.7849903106689453,-0.0990791320800781,-6.4436750411987305,L,False,True,0,R,100,,0.23,RightResponse,correct,True,15.0
39,39,389.37166666666667,799,389.311,389.315,389.321,0.4124377020902195,46.32621598925591,0.4089741706848144,45.88578414916992,0.271806538105011,31.337499618530277,0.0533384084701538,6.372840881347656,0.1117869019508361,9.423227310180664,L,False,True,0,R,50,,0.255,RightResponse,correct,True,12.0
40,40,709.4566666666667,4284,709.243,709.249,709.254,0.4769929516890386,43.29671135841782,-0.3937870264053345,-36.12221145629883,-0.363317534327507,-36.47041702270508,-0.2691729068756103,-23.870296478271484,-0.233751876046881,-23.83717918395996,L,False,True,1,R,200,,0.335,RightResponse,correct,True,10.0
41,41,714.2116666666667,4290,713.8,713.805,713.811,0.3553950518039779,39.79453831933589,-0.3530630469322204,-39.64747619628906,-0.3556549549102783,-32.517189025878906,0.0406463742256164,3.418027400970459,-0.0736768245697021,-5.681605339050293,L,False,True,1,L,400,,0.258,LeftResponse,correct,True,10.0
42,42,717.5296666666667,4293,717.418,717.424,717.429,0.3268979631707006,31.61816395676687,-0.3225148916244507,-30.542770385742188,-0.2438919246196746,-24.712650299072266,-0.053351879119873,-8.176030158996582,-0.0990908313542604,-7.830250740051269,L,False,True,1,L,100,,0.286,LeftResponse,correct,True,14.0
43,43,722.3716666666667,4300,722.155,722.163,722.172,0.620270271255456,43.37458836095112,-0.6167458295822144,-42.548126220703125,-0.396351046860218,-39.88900375366211,-0.0660287141799926,8.426854133605957,-0.2007198557257652,-15.313959121704102,L,False,True,1,L,200,,0.356,RightResponse,incorrect,True,9.0
44,44,725.4776666666667,947,725.361,725.367,725.371,0.3413538797003564,36.265810052407616,0.2944024801254272,31.44771194458008,0.2666623592376709,27.520601272583008,-0.1727705150842666,-18.062402725219727,-0.0940070301294326,-11.086792945861816,L,False,True,1,L,100,,0.389,RightResponse,incorrect,True,13.0
45,45,731.1106666666667,4305,731.097,731.106,731.113,0.8319158434428182,80.28662043804474,-0.830204963684082,-78.49308013916016,-0.5995655953884125,-46.37648391723633,-0.0533262491226196,-16.8753604888916,-0.0355705171823501,-1.616839051246643,L,False,True,1,R,0,,0.255,LeftResponse,incorrect,True,2.0
46,46,735.3026666666667,4308,735.239,735.247,735.253,0.7013861320983257,53.67406089763969,-0.6985048055648804,-53.6160774230957,-0.4776657819747925,-57.86043548583984,-0.0635101795196533,2.49420428276062,-0.1016263961791992,-10.901811599731444,L,False,True,1,L,50,,0.229,RightResponse,incorrect,True,11.0
47,47,738.7296666666667,4312,738.616,738.622,738.631,0.5720699855963884,46.67717612480807,-0.5716128349304199,-46.44573211669922,-0.3684096438810229,-41.80683517456055,0.0228655934333801,4.642492771148682,-0.2540537714958191,-18.73086166381836,L,False,True,1,L,100,,0.218,RightResponse,incorrect,True,16.0
48,48,743.3546666666667,4314,743.293,743.3,743.307,0.673582195884693,68.21650099471964,-0.6605075001716614,-67.64386749267578,-0.6097849309444427,-62.15666961669922,-0.1320712566375732,-8.820328712463379,-0.1930962800979614,-9.839611053466797,L,False,True,1,R,50,,0.319,LeftResponse,incorrect,True,14.0
49,49,746.5736666666667,4317,746.357,746.366,746.368,0.2597436474194923,20.45665097403409,-0.2565433382987976,-18.010597229003906,-0.1778543777763843,-12.218779563903809,-0.0406482219696044,-9.700152397155762,-0.2566197663545608,-25.61577796936035,L,False,True,1,R,200,,0.285,LeftResponse,incorrect,True,12.0
50,50,750.8116666666667,4320,750.801,750.807,750.815,0.6097374732849898,57.84457327243662,-0.6097321808338165,-57.3940315246582,-0.5970805734395981,-64.58190155029297,-0.0025404691696166,-7.205539703369141,-0.1753049492835998,-18.40819358825684,L,False,True,1,L,0,,0.2,LeftResponse,correct,True,5.0
51,51,756.0456666666666,4325,755.63,755.638,755.645,0.7256386734308548,66.02717713331322,-0.7213538289070129,-65.87659454345703,-0.5487989597022533,-46.65726852416992,-0.0787409543991088,-4.456726551055908,-0.1499016284942627,-7.991683483123779,L,False,True,1,R,400,,0.341,LeftResponse,incorrect,True,9.0
52,52,761.9486666666667,4330,761.883,761.892,761.9,0.9710194050504386,80.16676676876577,-0.9678206741809844,-79.99365997314453,-0.8028517886996269,-74.6277084350586,-0.0787516832351684,-5.265439987182617,0.0152442157268524,0.6005322337150574,L,False,True,1,R,50,,0.264,LeftResponse,incorrect,True,17.0
53,53,765.4126666666667,4331,765.002,765.011,765.019,0.9577424938606404,88.33495605677837,-0.954704761505127,-88.33335876464844,-0.8384412527084351,-70.14820861816406,-0.0762200951576232,-0.5312164425849915,-0.0635174214839935,-0.993178367614746,L,False,True,1,L,400,,0.251,LeftResponse,correct,True,12.0
54,54,770.7126666666667,4334,770.598,770.606,770.612,0.6581775623865154,61.04312153252857,-0.6553481221199036,-60.7070426940918,-0.4344712346792221,-50.88461685180664,-0.0609634518623352,-6.396690845489502,-0.1702329330146312,-17.94723129272461,L,False,True,1,R,100,,0.28,LeftResponse,incorrect,True,19.0
55,55,774.0226666666666,4337,773.96,773.965,773.97,0.4788558796773261,55.81204939675766,-0.4522092044353485,-55.35984802246094,-0.4547901526093483,-52.9626579284668,0.1575112342834472,7.090281009674072,0.0635198000818491,2.864164113998413,L,False,True,1,L,50,,0.317,LeftResponse,correct,True,20.0
56,56,778.2606666666667,4340,778.045,778.052,778.059,0.4974804254728975,43.884196523191065,-0.4903650842607021,-43.74723815917969,-0.5030641001649201,-43.67766952514648,-0.0838382840156555,-3.464369773864746,-0.170222133398056,-15.174546241760254,L,False,True,1,L,200,,0.337,LeftResponse,correct,True,15.0
57,57,782.3036666666667,4346,781.888,781.896,781.903,0.5985225341611567,51.08329024785503,-0.5690634250640869,-47.78382110595703,-0.4395350366830826,-41.25119018554688,-0.1854616999626159,-18.061256408691406,-0.0990703701972961,-17.343324661254883,L,False,True,1,R,400,,0.301,LeftResponse,incorrect,True,11.0
58,58,784.9426666666667,2833,784.933,784.938,784.95,0.8739364173888207,62.3781977772084,-0.2388120889663696,-26.44432830810547,-0.3226584792137146,-39.30987930297852,0.8406745195388794,56.49546051025391,0.5993803143501282,32.668827056884766,L,False,True,1,L,0,,0.245,RightResponse,incorrect,True,4.0
59,59,790.2676666666666,4349,790.205,790.213,790.22,0.8967699569246997,88.63106485008238,-0.8943337500095367,-88.60215759277344,-0.8333428725600243,-74.51228332519531,0.0660567879676818,-2.263476610183716,-0.1016313284635543,-14.205330848693848,L,False,True,1,L,50,,0.399,LeftResponse,correct,True,19.0
60,60,793.4826666666667,4350,793.418,793.427,793.434,1.0254426646799222,86.58808266627273,-0.937033236026764,-83.21797180175781,-0.6148662567138672,-64.51264953613281,-0.416534960269928,-23.92206573486328,-0.3760331980884075,-30.928194046020508,L,False,True,1,L,50,,0.328,LeftResponse,correct,True,18.0
61,61,796.3886666666667,4357,796.276,796.282,796.285,0.3156409521462937,34.9622937176107,-0.2921813130378723,-31.874248504638672,-0.279484648257494,-27.024486541748047,-0.1194122731685638,-14.36642837524414,-0.1854695975780487,-22.21934700012207,L,False,True,1,R,100,,0.247,LeftResponse,incorrect,True,22.0
62,62,800.1556666666667,4360,799.946,799.953,799.961,0.7066192128154405,55.907371240082384,-0.6910837590694427,-54.487823486328125,-0.5970785319805145,-54.349266052246094,-0.1473565399646759,-12.518436431884766,-0.1829138994216919,-19.81621551513672,L,False,True,1,L,200,,0.218,LeftResponse,correct,True,14.0
63,63,804.1486666666667,4362,804.138,804.145,804.151,0.6604353933752718,66.26672262838798,-0.5995822101831436,-61.59762191772461,-0.4878287017345428,-50.7923698425293,-0.2769044637680053,-24.433818817138672,-0.2920853495597839,-22.85914421081543,L,False,True,1,R,0,,0.354,RightResponse,correct,True,7.0
64,64,808.1416666666667,4364,808.029,808.037,808.044,0.7893212035392043,66.0590964655856,-0.7672245800495148,-64.96670532226562,-0.4598472118377685,-42.84344482421875,-0.1854572892189026,-11.963754653930664,-0.0914415717124939,-9.328790664672852,L,False,True,1,R,100,,0.396,RightResponse,correct,True,25.0
65,65,811.4556666666667,1009,811.342,811.349,811.355,0.6108334283724198,54.33100057515552,0.6046954095363617,54.32597351074219,0.5767549127340317,51.11587142944336,0.0863767266273498,-0.7390707731246948,0.0787595212459564,4.457589149475098,L,False,True,1,R,100,,0.211,RightResponse,correct,True,24.0
66,66,814.5026666666666,4373,814.091,814.098,814.106,0.6073841542907545,49.797325075214,-0.597007155418396,-46.3062629699707,-0.5157244801521301,-44.06772232055664,-0.1117943078279495,-18.31675720214844,-0.1422819644212722,-10.994576454162598,L,False,True,1,R,400,,0.2,RightResponse,correct,True,14.0
67,67,818.4666666666667,4376,818.355,818.362,818.369,0.5414472839801527,48.96049764733919,-0.536056250333786,-48.87116241455078,-0.4039789261296391,-47.48869705200195,-0.0762158632278442,-2.956317663192749,-0.2184998095035553,-17.369218826293945,L,False,True,1,L,100,,0.231,LeftResponse,correct,True,23.0
68,68,821.8186666666667,4378,821.602,821.609,821.616,0.5208532478293765,45.33643056889845,-0.5206983685493469,-43.89565658569336,-0.4903549998998642,-44.601348876953125,0.0127009749412536,11.338574409484863,-0.035559058189392,7.135117530822754,L,False,True,1,R,200,,0.341,LeftResponse,incorrect,True,13.0
69,69,825.3366666666667,4382,825.325,825.333,825.339,0.5928685764841315,49.84093431917759,-0.5869100838899612,-48.36637496948242,-0.4395233392715454,-44.25270462036133,-0.083843320608139,-12.033806800842283,-0.0863686203956604,-10.553762435913086,L,False,True,1,R,0,,0.317,RightResponse,correct,True,6.0
70,70,829.7416666666667,4385,829.328,829.335,829.34,0.4405714025084961,39.98452710140576,-0.4370112046599388,-39.88994216918945,-0.411587581038475,-43.83794403076172,-0.0558960437774658,-2.748621702194214,0.0025406181812286,0.9238656163215636,L,False,True,1,L,400,,0.306,RightResponse,incorrect,True,13.0
71,71,833.4546666666666,4388,833.393,833.399,833.407,0.5842557835043987,47.21861099518454,-0.5818148106336594,-47.049259185791016,-0.5029999017715454,-49.60778427124024,-0.0533511638641357,-3.995551824569702,0.0,6.466666221618652,L,False,True,1,R,50,,0.314,RightResponse,correct,True,17.0
72,72,836.5986666666666,1030,836.187,836.193,836.199,0.4251610119567513,41.630463674592754,0.4065248966217041,41.02210998535156,0.3378530740737915,38.10447692871094,0.1244965642690658,7.090980052947998,0.2184925675392151,24.7593936920166,L,False,True,1,L,400,,0.212,LeftResponse,correct,True,16.0
73,73,839.6126666666667,4392,839.598,839.605,839.611,0.5289802284809083,51.16097752969631,-0.4954010546207428,-49.517051696777344,-0.3836554642766714,-43.35488510131836,-0.1854666471481323,-12.864960670471191,-0.467502623796463,-43.97851943969727,L,False,True,1,R,0,,0.268,LeftResponse,incorrect,True,5.0
74,74,843.1806666666666,4396,842.767,842.774,842.779,0.5226360445303353,48.42327190486776,-0.467449426651001,-43.51142883300781,-0.4674786776304245,-46.054595947265625,-0.233750868588686,-21.25014877319336,-0.1524455100297927,-20.0950984954834,L,False,True,1,R,400,,0.383,RightResponse,correct,True,15.0
75,75,847.5566666666667,4401,847.345,847.352,847.358,0.6789209197221716,74.44693913753508,-0.6779890060424805,-74.0069808959961,-0.5360964797437191,-59.47671508789063,-0.035560131072998,-8.08167839050293,-0.1066957116127014,-9.35319709777832,L,False,True,1,R,200,,0.279,LeftResponse,incorrect,True,16.0
76,76,850.5746666666666,4404,850.563,850.57,850.576,0.5241971737031195,54.719803760637184,-0.5233099460601807,-54.68540191650391,-0.5588972866535187,-64.15702819824219,-0.0304856896400451,-1.9400362968444824,-0.0762029886245727,-14.247832298278809,L,False,True,1,L,0,,0.392,LeftResponse,correct,True,8.0
77,77,853.8556666666667,4406,853.643,853.647,853.65,0.1938441145830498,23.355479848656493,-0.1905525624752044,-22.889392852783203,-0.2388099730014801,-28.615575790405277,-0.0355705171823501,-4.642642974853516,-0.0660451054573059,-11.892767906188965,L,False,True,1,L,200,,0.324,LeftResponse,correct,True,19.0
78,78,857.4446666666666,4409,857.429,857.437,857.443,0.5672460018313596,44.90081169548062,-0.5589703917503357,-44.62538909912109,-0.5233573019504547,-60.3499755859375,-0.0965408086776733,-4.965635776519775,-0.1244722008705139,-7.251434326171875,L,False,True,1,L,0,,0.396,LeftResponse,correct,True,7.0
79,79,861.5456666666666,4412,861.482,861.486,861.491,0.2610857309058512,28.311278787230048,-0.2489334344863891,-27.433399200439453,-0.2692851424217224,-31.03931427001953,-0.0787267684936523,-6.995506763458252,-0.1168712973594665,-10.162766456604004,L,False,True,1,R,50,,0.288,LeftResponse,incorrect,True,16.0
80,80,1273.8286666666665,4509,1273.617,1273.623,1273.629,0.5466123771121828,59.14523452467735,-0.5461341142654419,-59.11565017700195,-0.5587098598480225,-56.21836853027344,0.0228608846664428,-1.8704735040664675,-0.1727715283632278,-16.768980026245117,L,False,True,2,L,200,,0.329,LeftResponse,correct,True,18.0
81,81,1276.8756666666666,4513,1276.764,1276.77,1276.774,0.5897551145614719,56.75196839811586,-0.3351330757141113,-29.72715759277344,-0.2258901596069336,-21.551610946655277,-0.4852802455425262,-48.34337615966797,-0.3277616202831268,-29.03430938720703,L,False,True,2,L,100,,0.323,LeftResponse,correct,True,22.0
82,82,1282.6006666666665,4520,1282.587,1282.594,1282.602,0.6536997639912628,54.96600478299051,-0.6476233601570129,-54.64954376220703,-0.5892329216003418,-53.35897445678711,-0.0889233648777008,-5.889740943908691,-0.0889202952384948,-6.005011558532715,L,False,True,2,R,0,,0.225,LeftResponse,incorrect,True,6.0
83,83,1287.2096666666666,4523,1286.797,1286.804,1286.81,0.5400867392237334,55.65138529495897,-0.5309191346168518,-55.05428314208984,-0.4216840863227844,-47.52582550048828,-0.0990886390209198,-8.130350112915039,-0.0914684236049652,-4.850598335266113,L,False,True,2,L,400,,0.274,LeftResponse,correct,True,14.0
84,84,1293.2046666666665,4526,1292.791,1292.798,1292.804,0.6889253641004607,72.37563738096316,-0.6883583068847656,-71.4446792602539,-0.4444587230682373,-43.91472244262695,-0.0279463529586792,-11.571114540100098,-0.0050815902650356,-6.675352573394775,L,False,True,2,R,400,,0.399,RightResponse,correct,True,13.0
85,85,1295.9566666666665,4530,1295.892,1295.896,1295.902,0.4144279663396663,44.31664111182025,-0.4141474962234497,-44.09419631958008,-0.4217226803302765,-41.20183944702149,-0.0152443647384643,4.434696197509766,-0.1117929965257644,-14.96735382080078,L,False,True,2,R,50,,0.226,RightResponse,correct,True,19.0
86,86,1298.8086666666666,4537,1298.696,1298.701,1298.706,0.3813086008796686,37.1403063416324,-0.3785561919212341,-37.13972473144531,-0.4216528534889221,-46.853660583496094,0.0457324683666229,0.2078509628772735,-0.0609776675701141,-8.961838722229004,L,False,True,2,R,100,,0.21,RightResponse,correct,True,21.0
87,87,1303.1966666666665,4541,1303.083,1303.09,1303.096,0.4753378515476575,40.71090897641018,-0.4648955464363098,-40.392539978027344,-0.3709222674369812,-39.19437026977539,-0.0990868508815765,-5.081419467926025,-0.2159648910164833,-23.35185432434082,L,False,True,2,R,100,,0.264,RightResponse,correct,True,20.0
88,88,1306.9606666666666,4545,1306.896,1306.904,1306.91,0.4626513710335658,38.71394208121191,-0.4571488499641418,-38.6719970703125,-0.5157085657119751,-47.06825256347656,-0.0711422525346279,1.8016531467437744,-0.1549760103225708,-0.7621796727180481,L,False,True,2,L,50,,0.305,RightResponse,incorrect,True,18.0
89,89,1310.7826666666665,4548,1310.669,1310.676,1310.68,0.368001808864907,32.638044995626124,-0.3480876982212066,-29.473180770874023,-0.4065165147185325,-42.56900405883789,-0.1194164380431175,-14.02047061920166,-0.2210384011268615,-29.86456871032715,L,False,True,2,R,100,,0.384,LeftResponse,incorrect,True,19.0
90,90,1315.0876666666666,4555,1315.024,1315.031,1315.038,0.574038541365955,54.54476805842545,-0.5614816844463348,-54.53154373168945,-0.4420961290597915,-37.626739501953125,-0.1194092333316803,-1.201024889945984,-0.1676819026470184,-7.298561573028564,L,False,True,2,R,50,,0.384,LeftResponse,incorrect,True,21.0
91,91,1319.2006666666666,4564,1318.787,1318.793,1318.799,0.2858987060741428,27.96468716194657,-0.284529447555542,-27.921836853027344,-0.4064875245094299,-44.57518768310547,-0.0279475152492523,-1.5474995374679563,-0.0558968782424926,-8.153552055358887,L,False,True,2,L,400,,0.217,LeftResponse,correct,True,12.0
92,92,1323.2476666666666,4568,1323.033,1323.039,1323.045,0.4421160932335169,44.667362889935546,-0.4394726157188415,-44.59371948242188,-0.4877935945987701,-48.456050872802734,-0.0482748374342918,-2.5638818740844727,0.0482751009985804,7.068027019500732,L,False,True,2,R,200,,0.394,LeftResponse,incorrect,True,17.0
93,93,1327.2696666666666,4571,1326.854,1326.862,1326.867,0.4932910173319388,42.89494084142152,-0.4928720593452453,-42.72734832763672,-0.3811142621561885,-41.73794555664063,-0.0203263596631586,-3.7880938053131104,-0.1880174502730369,-17.554489135742188,L,False,True,2,R,400,,0.26,NoResponse,incorrect,True,11.0
94,94,1333.4606666666666,4578,1333.248,1333.257,1333.263,0.8444293118845182,75.60005609900611,-0.8382910490036011,-75.12068176269531,-0.7520643472671509,-75.71491241455078,-0.1016315892338752,-8.500097274780273,-0.1016311720013618,-10.047612190246582,L,False,True,2,R,200,,0.35,LeftResponse,incorrect,True,20.0
95,95,1338.6776666666665,4582,1338.266,1338.273,1338.281,0.6373405391228925,55.71853676715647,-0.6351032257080078,-55.70457458496094,-0.6733028888702393,-62.087379455566406,0.0533559322357177,1.2472809553146362,-0.0482717454433441,-6.628694534301758,L,False,True,2,L,400,,0.279,LeftResponse,correct,True,14.0
96,96,1341.5456666666666,4587,1341.532,1341.538,1341.544,0.3410289832253587,32.86538110315482,-0.3404226899147033,-32.86439895629883,-0.4624214768409729,-44.34806823730469,-0.0203263275325298,0.2540793120861053,0.033030092716217,0.6467450857162476,L,False,True,2,R,0,,0.321,LeftResponse,incorrect,True,9.0
97,97,1344.8306666666665,4589,1344.818,1344.824,1344.828,0.3425161017723622,33.91374747144595,-0.3379242047667503,-32.198734283447266,-0.2998114125803113,-33.930992126464844,-0.055897332727909,-10.648181915283203,-0.0381095111370086,-7.922147274017334,L,False,True,2,L,0,,0.353,RightResponse,incorrect,True,12.0
98,98,1349.9596666666666,4591,1349.748,1349.756,1349.762,0.7214647265825336,68.62381010046705,-0.7214602530002594,-68.61073303222656,-0.8358932882547379,-71.4412841796875,0.0025406777858734,1.3396363258361816,-0.030489538796246,6.767752170562744,L,False,True,2,L,200,,0.397,RightResponse,incorrect,True,23.0
99,99,1356.2256666666665,4596,1356.017,1356.022,1356.028,0.3716329269983507,42.74630324667022,-0.3709287345409393,-42.61307144165039,-0.4776651710271835,-51.55464553833008,-0.0228671450167894,-3.372326135635376,-0.060976892709732,-1.4089436531066897,L,False,True,2,R,200,,0.294,LeftResponse,incorrect,True,26.0
100,100,1360.3226666666665,4603,1360.113,1360.118,1360.123,0.3808736582063158,40.25845806152976,-0.3633081614971161,-38.22454833984375,-0.4497181922197342,-47.51265335083008,-0.1143325120210647,-12.634371757507324,-0.1854742467403412,-14.274365425109863,L,False,True,2,L,200,,0.385,LeftResponse,correct,True,29.0
101,101,1363.3036666666665,4604,1363.29,1363.296,1363.304,0.7157383435969037,70.82223675890774,-0.7088460007216781,-69.66087341308594,-0.6834552139043808,-66.45174407958984,0.0990894734859466,12.773094177246094,0.0813053899910301,7.807164669036865,L,False,True,2,L,0,,0.222,LeftResponse,correct,True,15.0
102,102,1367.5996666666665,4608,1367.593,1367.597,1367.603,0.4191610927025374,48.66476014791681,-0.4191533923149109,-48.658790588378906,-0.5894471667706966,-64.88058471679688,-0.0025407373905181,0.7622196078300476,-0.1473651826381683,-19.35614776611328,L,False,True,2,L,0,,0.221,LeftResponse,correct,True,14.0
103,103,1371.1926666666666,4612,1370.978,1370.983,1370.989,0.4582574976719891,40.34082482124288,-0.4293922185897827,-38.96642303466797,-0.3658581227064132,-40.99738693237305,-0.1600695373490452,-10.4403076171875,-0.1930961161851883,-21.873462677001957,L,False,True,2,R,200,,0.286,LeftResponse,incorrect,True,28.0
104,104,1375.0526666666665,4615,1374.993,1374.999,1375.006,0.6323218562932251,63.48281616365767,-0.6199447512626648,-63.08032989501953,-0.7646313309669495,-79.97418975830078,-0.1244967281818389,-7.137221336364746,-0.2820239067077636,-20.718854904174805,L,False,True,2,L,50,,0.329,RightResponse,incorrect,True,24.0
105,105,1378.0836666666667,4617,1377.974,1377.979,1377.985,0.4774413599729447,50.71946031578441,-0.4724876880645752,-50.62065887451172,-0.5462639480829239,-56.45132446289063,0.0685976445674896,3.1642613410949707,0.0838461795356124,10.163175582885742,L,False,True,2,R,100,,0.345,LeftResponse,incorrect,True,22.0
106,106,1385.0446666666667,4619,1384.632,1384.639,1384.646,0.6824083156779732,68.7736653316302,-0.673189640045166,-67.91886901855469,-0.7392960339784622,-80.09712982177734,-0.1117891669273376,-10.809453010559082,-0.0940092056989669,-9.193039894104004,L,False,True,2,R,400,,0.376,LeftResponse,incorrect,True,13.0
107,107,1389.2786666666666,4624,1389.266,1389.275,1389.28,0.6162074518287102,52.902574240727525,-0.6045273542404175,-51.65243148803711,-0.5081553161144257,-34.64707565307617,-0.1194081306457519,-11.43278980255127,-0.1803961470723152,-14.598010063171388,L,False,True,2,R,0,,0.32,RightResponse,correct,True,13.0
108,108,1394.8076666666666,4630,1394.697,1394.704,1394.711,0.6280680555782313,60.82015634300797,-0.6224474310874939,-60.397274017333984,-0.4497149363160133,-51.87770080566406,-0.0838372111320495,-7.159658432006836,-0.043187141418457,-2.03233003616333,L,False,True,2,L,100,,0.299,RightResponse,incorrect,True,25.0
109,109,1398.2636666666665,4631,1397.851,1397.858,1397.889,1.3533455134603654,43.40426158450419,-1.1559579819440842,-41.94597625732422,-0.7698485255241394,-53.05514526367188,0.7037792429327965,11.15638828277588,0.7088727653026581,0.4388474822044372,L,False,True,2,R,400,,0.337,RightResponse,correct,True,16.0
110,110,1401.6146666666666,4636,1401.205,1401.209,1401.215,0.3461371768450803,37.26832265464865,-0.3455398604273796,-37.21030044555664,-0.5182898789644241,-55.755741119384766,-0.020326092839241,-2.078801155090332,-0.104171022772789,-9.724169731140137,L,False,True,2,L,400,,0.296,RightResponse,incorrect,True,15.0
111,111,1407.1896666666667,4637,1407.128,1407.137,1407.144,1.2275525182668288,114.37694741847316,-1.2271080613136292,-114.3265380859375,-1.437955915927887,-153.7901611328125,-0.0330301523208618,3.395407199859619,-0.1778554767370224,-16.237966537475586,L,False,True,2,R,50,,0.247,RightResponse,correct,True,27.0
112,112,1410.9156666666665,4638,1410.855,1410.863,1410.87,1.3709495770924305,135.52149241375653,-1.3183709383010864,-130.07933044433594,-1.4632840901613235,-136.6765594482422,-0.3760329931974411,-38.01897811889648,-0.4192287623882293,-43.40116882324219,L,False,True,2,L,50,,0.268,RightResponse,incorrect,True,26.0
113,115,1420.7706666666666,4657,1420.759,1420.764,1420.769,0.2973773070850841,31.661914336931453,-0.284553974866867,-31.59660530090332,-0.3607491254806518,-34.851112365722656,-0.0863845944404602,-2.0325729846954346,-0.058435320854187,-4.896544456481934,L,False,True,2,R,0,,0.249,LeftResponse,incorrect,True,12.0
114,116,1424.0476666666666,4666,1423.935,1423.942,1423.949,0.5093767137308498,47.39431575091693,-0.5081331878900528,-47.16408920288086,-0.5665389895439148,-56.33036804199219,-0.0355710536241531,-4.665817737579346,-0.2489897459745407,-17.92361831665039,L,False,True,2,L,100,,0.292,LeftResponse,correct,True,27.0
115,117,1427.0736666666667,4674,1427.06,1427.066,1427.072,0.522597394288889,56.82713477554359,-0.5131170749664307,-56.73896026611328,-0.3938199132680893,-40.74480056762695,0.0990903824567794,3.1644327640533447,-0.0736753344535827,-4.596049308776856,L,False,True,2,L,0,,0.391,LeftResponse,correct,True,15.0
116,118,1431.9616666666666,4677,1431.747,1431.757,1431.764,0.8494687503619736,72.86816794842736,-0.8406687378883362,-72.12638092041016,-0.7749306261539459,-67.53839111328125,-0.12195585668087,-10.37087631225586,-0.1041702926158905,-11.47952651977539,L,False,True,2,L,200,,0.2,LeftResponse,correct,True,31.0
117,119,1435.1256666666666,4682,1435.064,1435.071,1435.077,0.5620278407762651,60.99666581121141,-0.5437193810939789,-56.520111083984375,-0.5004864633083344,-51.27302169799805,-0.1422832682728767,-22.936222076416016,-0.030489407479763,0.90082448720932,L,False,True,2,R,50,,0.236,LeftResponse,incorrect,True,28.0
118,120,1518.9186666666665,6464,1518.707,1518.711,1518.716,0.3535927583119438,41.0513300255006,-0.1702116131782531,-20.739511489868164,-0.2058012261986732,-23.90624237060547,-0.3099287748336792,-35.42716979980469,-0.3150456547737121,-32.98280715942383,L,False,True,3,L,200,,0.348,LeftResponse,correct,True,30.0
119,121,1522.0496666666666,4778,1521.836,1521.842,1521.848,0.5750103049311626,66.93798882420275,-0.5742016630247235,-66.19725036621094,-0.5563879460096359,-61.06577301025391,-0.0304844379425048,-9.930679321289062,0.0355710014700889,5.058463096618652,L,False,True,3,L,200,,0.374,LeftResponse,correct,True,29.0
120,122,1525.8836666666666,4781,1525.468,1525.475,1525.481,0.5736709457727237,63.83228067102371,-0.5411015748977661,-61.8227767944336,-0.353169322013855,-42.56972885131836,-0.1905451118946075,-15.890384674072266,-0.1041694283485412,-7.529788970947266,L,False,True,3,L,400,,0.342,LeftResponse,correct,True,18.0
121,123,1529.2936666666665,4786,1529.279,1529.286,1529.294,0.8060822757873845,77.87191356532604,-0.78504953160882,-76.08038330078125,-0.612323060631752,-65.52827453613281,-0.1829367876052856,-16.607534408569336,-0.0787635147571563,-1.5475530624389648,L,False,True,3,R,0,,0.254,LeftResponse,incorrect,True,14.0
122,124,1532.3996666666665,4791,1532.338,1532.345,1532.351,0.6824817484029614,69.51736610098267,-0.6402708888053894,-63.51896667480469,-0.5691311210393906,-50.88438415527344,-0.2362933047115802,-28.24898338317871,-0.330295942723751,-34.02278137207031,L,False,True,3,L,50,,0.246,LeftResponse,correct,True,31.0
123,125,1535.3346666666666,1461,1535.323,1535.325,1535.329,0.1441102522759164,18.968959157494268,0.1422844380140304,18.77877426147461,0.1600657999515533,18.316295623779297,0.0228670835494995,2.6793746948242188,0.0152427554130554,-0.1385659277439117,L,False,True,3,L,0,,0.228,LeftResponse,correct,True,17.0
124,126,1539.8846666666666,4800,1539.822,1539.828,1539.836,0.6148562900175993,52.5468986719632,-0.6148510407656431,-52.40851593017578,-0.5945397764444351,-60.95553588867188,0.0025406777858734,3.8110389709472656,-0.0101616978645324,-3.187141180038452,L,False,True,3,L,50,,0.329,LeftResponse,correct,True,30.0
125,127,1543.2246666666665,4806,1542.811,1542.817,1542.82,0.2275533248530025,26.174333298845028,-0.2185081019997596,-24.02203750610352,-0.2667720168828964,-29.749067306518555,-0.0635194852948188,-10.394105911254885,-0.1194106638431549,-8.638169288635254,L,False,True,3,R,400,,0.343,LeftResponse,incorrect,True,17.0
126,128,1547.4246666666666,4812,1547.412,1547.419,1547.428,0.7377512736211828,60.50540622173336,-0.7317386865615845,-60.3088493347168,-0.5513309091329575,-51.78408432006836,-0.0939970016479492,-4.873076438903809,-0.0152432322502136,1.986246109008789,L,False,True,3,R,0,,0.299,RightResponse,correct,True,16.0
127,129,1550.7346666666665,4815,1550.624,1550.629,1550.633,0.3039145954043301,34.57791866329344,-0.2845639139413833,-32.8219108581543,-0.2007209509611129,-20.672683715820312,-0.1067120432853698,-10.879091262817385,-0.1397370994091034,-19.078123092651367,L,False,True,3,R,100,,0.323,RightResponse,correct,True,26.0
128,130,1553.9326666666666,1481,1553.868,1553.875,1553.881,0.5331698582951804,51.34039872571075,0.5309799462556839,51.042747497558594,0.4624173194169998,41.29887771606445,0.0482741594314575,5.520368576049805,-0.012703962624073,3.88047194480896,L,False,True,3,R,50,,0.394,RightResponse,correct,True,29.0
129,131,1558.6036666666666,4825,1558.19,1558.195,1558.204,0.5842426419258118,47.59431987903338,-0.5842426419258118,-47.43403625488281,-0.5513317063450813,-51.48453521728516,0.0,-3.902754068374634,-0.0482723712921142,-2.332782030105591,L,False,True,3,L,400,,0.202,LeftResponse,correct,True,20.0
130,132,1562.0136666666665,4830,1561.948,1561.955,1561.962,0.6122245651667607,64.17736576104785,-0.6096675395965576,-63.18387985229492,-0.5665460824966431,-58.848663330078125,-0.0558964163064956,-11.248626708984377,-0.1168758049607276,-8.292167663574219,L,False,True,3,R,50,,0.345,LeftResponse,incorrect,True,28.0
131,133,1566.4556666666665,4835,1566.242,1566.248,1566.254,0.5517356423857793,54.87261016240715,-0.5512617230415344,-54.041385650634766,-0.5309274792671204,-54.917293548583984,-0.0228633284568786,-9.514829635620115,-0.1702310815453529,-13.581548690795898,L,False,True,3,R,200,,0.276,LeftResponse,incorrect,True,28.0
132,134,1571.7266666666665,4838,1571.316,1571.323,1571.329,0.5494595024737498,58.01549899026241,-0.5484668016433716,-57.80078125,-0.5208520740270615,-54.048770904541016,-0.0330138206481933,-4.98676347732544,0.0,-2.101850748062134,L,False,True,3,R,400,,0.237,RightResponse,correct,True,19.0
133,135,1574.9156666666665,4844,1574.849,1574.856,1574.86,0.3978297373985994,30.747621709842136,-0.3506193459033966,-25.93824005126953,-0.2388322874903679,-23.536733627319336,-0.1879749298095703,-16.511327743530273,-0.1549876257777214,-14.159087181091309,L,False,True,3,L,50,,0.327,LeftResponse,correct,True,31.0
134,136,1578.1836666666666,4849,1577.971,1577.975,1577.979,0.248369125812444,29.326635111177584,-0.2134255589917302,-25.708080291748047,-0.2083321213722229,-22.519287109375,-0.1270305216312408,-14.11191463470459,-0.1041701436042785,-10.116744995117188,L,False,True,3,L,200,,0.337,LeftResponse,correct,True,31.0
135,137,1581.2276666666667,4854,1580.82,1580.824,1580.828,0.2876345465813039,34.27924948860838,-0.2439157143235206,-29.819629669189453,-0.3023203909397125,-34.01945877075195,-0.1524426341056823,-16.90729522705078,-0.248986929655075,-27.50869369506836,L,False,True,3,R,400,,0.298,LeftResponse,incorrect,True,18.0
136,138,1584.4956666666665,4858,1584.386,1584.392,1584.398,0.5066701655234137,56.59023422741453,-0.5005105286836624,-55.68692779541016,-0.5105417370796204,-55.53281021118164,-0.0787646323442459,-10.070783615112305,-0.0508148968219757,-10.856006622314451,L,False,True,3,L,100,,0.314,LeftResponse,correct,True,25.0
137,139,1589.1626666666666,4863,1589.153,1589.159,1589.166,0.6585850703632913,64.28726685493525,-0.6555147171020508,-63.51899337768555,-0.6173672080039978,-62.45245361328125,-0.063519686460495,-9.90909481048584,-0.2312117181718349,-12.542280197143556,L,False,True,3,R,0,,0.314,LeftResponse,incorrect,True,15.0
138,140,1592.6016666666665,4866,1592.592,1592.598,1592.604,0.5134198905436695,55.23079395943365,-0.4954460933804512,-54.37214660644531,-0.4927884340286255,-48.538875579833984,-0.134659394621849,-9.701045036315918,-0.1270255446434021,-13.418543815612791,L,False,True,3,L,0,,0.294,RightResponse,incorrect,True,18.0
139,141,1596.3196666666665,4869,1596.304,1596.312,1596.318,0.5640267669646093,51.29880121240838,-0.5335407108068466,-48.13454818725586,-0.4470974802970886,-40.69090270996094,-0.1829221248626709,-17.737876892089844,-0.2413626313209533,-21.041467666625977,L,False,True,3,L,0,,0.253,RightResponse,incorrect,True,21.0
140,142,1599.0346666666665,6517,1599.022,1599.026,1599.035,0.4483599450447859,48.44500216004867,-0.1778081059455871,-36.09416198730469,-0.1092273592948913,-28.425811767578125,-0.4115955755114555,-32.31299591064453,-0.4522589594125747,-45.24906539916992,L,False,True,3,R,0,,0.2,LeftResponse,incorrect,True,24.0
141,143,1602.1026666666667,4874,1601.889,1601.896,1601.904,0.7473605894395315,72.32869413042131,-0.7444356083869934,-71.67207336425781,-0.7162233591079712,-73.12239837646484,-0.0660566091537475,-9.723882675170898,-0.0609781891107559,-2.0095059871673584,L,False,True,3,L,200,,0.299,RightResponse,incorrect,True,30.0
142,144,1605.4916666666666,4876,1605.43,1605.436,1605.442,0.5073072664830603,50.867546847319055,-0.47511026263237,-47.00289916992188,-0.4776280224323272,-49.61064910888672,-0.1778507828712463,-19.44825935363769,-0.0609738826751709,-3.834005117416382,L,False,True,3,R,50,,0.215,RightResponse,correct,True,30.0
143,145,1609.0636666666664,4879,1608.952,1608.959,1608.965,0.5515415215965195,52.15542885530762,-0.5335450991988182,-50.14424514770508,-0.4419902563095093,-51.07968521118164,-0.1397414654493332,-14.343759536743164,-0.0482728779315948,-4.804223537445068,L,False,True,3,R,100,,0.364,RightResponse,correct,True,24.0
144,146,1612.6316666666667,4882,1612.217,1612.224,1612.233,0.6507733312672659,57.519089410192905,-0.6147828698158264,-54.82655715942383,-0.4546003341674804,-45.02404022216797,-0.2134196609258651,-17.392362594604492,-0.0889198184013366,-0.9700360298156738,L,False,True,3,L,400,,0.206,LeftResponse,correct,True,21.0
145,147,1616.5416666666665,4889,1616.128,1616.135,1616.142,0.6630443159423136,59.3554324914715,-0.5792307257652283,-54.29769134521485,-0.5359297394752502,-53.84683609008789,-0.3226755820214748,-23.97557258605957,-0.2235734760761261,-21.595264434814453,L,False,True,3,L,400,,0.263,LeftResponse,correct,True,20.0
146,148,1620.0636666666664,4893,1620.002,1620.007,1620.011,0.2928861791097818,35.138707207388066,-0.2921800911426544,-34.83068084716797,-0.3657688498497009,-39.78635787963867,0.0203250646591186,-4.642457962036133,-0.0762217938899993,-8.453669548034668,L,False,True,3,R,50,,0.251,LeftResponse,incorrect,True,29.0
147,149,1623.4106666666667,4897,1622.998,1623.005,1623.011,0.6707805889414289,66.92830341757124,-0.6453536450862885,-62.13340759277344,-0.5893098711967468,-60.24589538574219,-0.1829351559281349,-24.87644386291504,-0.1524475812911987,-20.049169540405277,L,False,True,3,R,400,,0.291,LeftResponse,incorrect,True,19.0
148,150,1626.5126666666665,4902,1626.4,1626.406,1626.411,0.4046212220903327,42.22339569226575,-0.4039746895432472,-42.22232818603516,-0.4470723867416382,-45.81540298461914,0.0228644609451293,0.3002437949180603,-0.1143090724945068,-9.121700286865234,L,False,True,3,R,100,,0.334,RightResponse,correct,True,23.0
149,151,1630.8966666666665,4904,1630.68,1630.687,1630.695,0.6249227937304074,60.94051949119557,-0.6148420833051205,-58.66661071777344,-0.584233820438385,-58.05633544921875,-0.1117931604385376,-16.49168586730957,-0.1422656774520874,-0.8544479608535767,L,False,True,3,R,200,,0.349,LeftResponse,incorrect,True,33.0
150,152,1634.1146666666666,4911,1634.006,1634.013,1634.018,0.4155900138088042,40.79682930120434,-0.4065124243497848,-39.45051193237305,-0.3835669755935669,-34.43013000488281,-0.0863869690801948,-10.39415168762207,-0.0838434398174285,-8.592225074768066,L,False,True,3,L,100,,0.329,LeftResponse,correct,True,22.0
151,153,1637.6286666666665,4916,1637.42,1637.425,1637.431,0.3691209882424889,37.98044300005693,-0.3684119954705238,-37.46492004394531,-0.5817843973636627,-53.62904739379883,0.022867128252983,6.236490726470947,-0.0228670984506607,0.2078819125890731,L,False,True,3,R,200,,0.379,LeftResponse,incorrect,True,36.0
152,154,1641.0386666666666,4926,1640.975,1640.981,1640.988,0.4929893567574442,43.23837539894403,-0.4903633948415518,-41.62229537963867,-0.4038648009300232,-43.8502311706543,0.0508158132433891,11.710748672485352,-0.0482723414897918,0.5312303900718689,L,False,True,3,L,50,,0.362,RightResponse,incorrect,True,32.0
153,156,1647.6296666666665,4936,1647.419,1647.426,1647.432,0.7139583470261767,66.71766394794231,-0.7138453125953674,-66.6521224975586,-0.7492851614952087,-69.65997314453125,-0.0127039747312664,-2.9565603733062744,-0.1092461943626403,-15.9827241897583,L,False,True,3,R,200,,0.376,RightResponse,correct,True,39.0
154,157,1651.2306666666666,4941,1651.119,1651.127,1651.135,0.9505595540692108,82.5802912014872,-0.945110820233822,-81.3932876586914,-0.9273199923336506,-92.43231201171876,-0.1016317042522132,-13.951244354248049,-0.1498984098434448,-24.48265838623047,L,False,True,3,L,100,,0.327,RightResponse,incorrect,True,20.0
155,158,1654.4316666666666,4950,1654.421,1654.425,1654.43,0.2935195250843635,33.88773951793043,-0.292185865342617,-33.86124801635742,-0.3683848977088928,-37.50857925415039,-0.0279487334191799,-1.339691162109375,-0.1803946271538734,-12.588323593139648,L,False,True,3,L,0,,0.319,RightResponse,incorrect,True,27.0
156,159,1658.0216666666665,4956,1657.909,1657.916,1657.923,0.41547773724523,35.866041888509805,-0.391271598637104,-31.066028594970703,-0.4418941736221313,-44.65196228027344,0.1397436447441578,17.92414093017578,0.0787551403045654,5.935603618621826,L,False,True,3,L,100,,0.206,LeftResponse,correct,True,23.0
157,160,1796.2496666666666,5023,1795.838,1795.845,1795.851,0.6681740307988788,65.34529002318723,-0.6681692004203796,-64.92332458496094,-0.4827394506428391,-56.72775268554688,0.0025406777858734,7.414098262786865,0.0711396634578704,5.358551025390625,L,False,True,4,L,400,,0.226,LeftResponse,correct,True,22.0
158,161,1799.5056666666665,5027,1799.393,1799.398,1799.402,0.411030567770388,48.792253190090086,-0.4039015769958496,-47.68740081787109,-0.3353511691093445,-37.831321716308594,-0.0762210190296173,-10.324522972106934,0.0813004970550537,8.361015319824219,L,False,True,4,L,100,,0.39,LeftResponse,correct,True,22.0
159,162,1802.9066666666665,5030,1802.839,1802.845,1802.85,0.3455941459045333,30.85496040381283,-0.3352687358856201,-30.03993225097656,-0.2972469627857208,-27.045818328857425,-0.0838462188839912,-7.044930934906006,-0.0254077315330505,-1.5706568956375122,L,False,True,4,R,50,,0.287,RightResponse,correct,True,35.0
160,163,1806.8286666666665,5034,1806.77,1806.776,1806.783,0.6911660539037271,74.85904478741811,-0.6909372210502625,-74.77449798583984,-0.5080722272396088,-45.91145324707031,0.0177839994430542,-3.5568296909332275,-0.0355702340602874,-0.0923917740583419,L,False,True,4,L,50,,0.364,LeftResponse,correct,True,34.0
161,164,1810.2216666666666,5038,1810.108,1810.114,1810.121,0.4959075396136038,44.32358324894259,-0.4953801035881042,-43.99566650390625,-0.439555361866951,-48.20563888549805,0.0228657126426696,5.381576061248779,-0.1346609070897102,-10.671246528625488,L,False,True,4,R,100,,0.379,LeftResponse,incorrect,True,21.0
162,165,1813.7486666666666,5042,1813.337,1813.341,1813.346,0.2899650509847676,29.012733136626935,-0.2743046879768371,-27.75389671325684,-0.2566001415252685,-27.69248962402344,-0.0940035581588745,-8.45339584350586,0.0228669345378875,8.938867568969727,L,False,True,4,L,400,,0.243,LeftResponse,correct,True,21.0
163,166,1817.0746666666666,5046,1816.851,1816.857,1816.86,0.2451416468239161,28.53554099039861,-0.2413074970245361,-26.18570327758789,-0.1727548241615295,-20.92451286315918,-0.0431870222091674,-11.33957862854004,-0.1117948240134865,-14.944475173950195,L,False,True,4,R,200,,0.376,RightResponse,correct,True,38.0
164,167,1820.8506666666665,5053,1820.786,1820.79,1820.796,0.3093586061956308,29.675836747876108,-0.2921878434717655,-29.28812599182129,-0.1778483688831329,-21.1339054107666,-0.1016317438334226,-4.781313896179199,-0.1244976222515106,-7.876406669616699,L,False,True,4,L,50,,0.215,LeftResponse,correct,True,33.0
165,168,1823.9066666666665,5056,1823.795,1823.803,1823.808,0.4738123618212788,40.72739921423371,-0.4724752902984619,-40.15728378295898,-0.3556962609291076,-36.077880859375,-0.0355704128742218,-6.7906999588012695,-0.1244968622922897,-6.883111000061035,L,False,True,4,R,100,,0.266,LeftResponse,incorrect,True,24.0
166,169,1828.1576666666665,5061,1828.147,1828.152,1828.158,0.3330974146860005,37.9742972206964,-0.3327484726905823,-37.91609573364258,-0.4090510308742523,-42.82247924804688,-0.0152427554130554,2.1016502380371094,-0.104172358289361,-6.259588241577148,L,False,True,4,R,0,,0.334,LeftResponse,incorrect,True,30.0
167,170,1830.9636666666665,5065,1830.952,1830.956,1830.962,0.3547860000340926,38.67476137892479,-0.3302756547927856,-37.57754898071289,-0.2921705842018127,-30.048484802246094,-0.1295804679393768,-9.146856307983398,-0.0990873873233795,-12.472579002380373,L,False,True,4,R,0,,0.331,RightResponse,correct,True,33.0
168,171,1834.5356666666667,5068,1834.327,1834.331,1834.335,0.2705026888645738,29.88597245177473,-0.2693067789077759,-29.63297462463379,-0.4293917864561081,-47.39714050292969,0.0254079420119524,3.8804850578308105,-0.116869181394577,-10.809276580810549,L,False,True,4,L,200,,0.281,LeftResponse,correct,True,37.0
169,172,1837.6006666666665,5071,1837.536,1837.541,1837.548,0.4239217854978539,44.158562732871225,-0.4217157363891601,-43.71928024291992,-0.276944545796141,-28.156496047973636,0.0431916415691375,6.213147163391113,-0.0406474471092224,2.817633867263794,L,False,True,4,L,50,,0.296,LeftResponse,correct,True,32.0
170,173,1841.4516666666666,5075,1841.389,1841.396,1841.402,0.5541473341109483,63.89256119812965,-0.5536753535270691,-61.23154067993164,-0.6809027390554547,-68.66887664794922,-0.0228663682937622,-18.24713134765625,-0.175311878323555,-17.161636352539062,L,False,True,4,R,50,,0.232,LeftResponse,incorrect,True,31.0
171,175,1848.1206666666665,5083,1847.907,1847.915,1847.921,0.6176080761633375,49.71107650435236,-0.61223304271698,-49.39842224121094,-0.5513458997011185,-53.40228271484375,0.081304594874382,5.56659746170044,-0.121957778930664,-4.365541934967041,L,False,True,4,R,200,,0.323,RightResponse,correct,True,36.0
172,176,1851.8426666666667,5091,1851.831,1851.838,1851.844,0.6230098593343074,63.52407289607676,-0.6197634935379028,-62.87551498413086,-0.5284787863492966,-51.30036544799805,-0.063517689704895,-9.054140090942385,0.0025407932698726,-1.0625135898590088,L,False,True,4,R,0,,0.317,RightResponse,correct,True,31.0
173,177,1856.7226666666666,5093,1856.51,1856.518,1856.524,0.7938366641362876,70.85539857030558,-0.7823317050933838,-67.35694122314453,-0.8181160986423492,-79.61807250976562,-0.1346616223454475,-21.989315032958984,-0.1626102365553379,-17.046396255493164,L,False,True,4,R,200,,0.259,RightResponse,correct,True,35.0
174,178,1859.9496666666666,5097,1859.888,1859.894,1859.9,0.5591406500613038,56.3059018408194,-0.5055661797523499,-52.58901977539063,-0.3963492959737777,-47.30281448364258,-0.2388327959924936,-20.118389129638672,-0.236293364316225,-12.288190841674805,L,False,True,4,R,50,,0.394,RightResponse,correct,True,34.0
175,179,1863.5086666666666,5100,1863.5,1863.504,1863.509,0.3149677669048945,34.40915651796689,-0.2998046278953552,-31.504966735839844,-0.4827367141842842,-51.99241638183594,-0.0965498797595501,-13.835719108581545,-0.0431917607784271,-7.945487022399902,L,False,True,4,L,0,,0.31,LeftResponse,correct,True,30.0
176,180,1866.8186666666666,5103,1866.607,1866.614,1866.618,0.3372777735522491,34.83056137719505,-0.3124375343322754,-27.525606155395508,-0.424308069050312,-41.85356521606445,-0.1270396932959556,-21.3426570892334,-0.2006852626800537,-17.36669921875,L,False,True,4,R,200,,0.337,RightResponse,correct,True,34.0
177,181,1871.3566666666666,5106,1870.942,1870.95,1870.957,0.8613143737808402,82.38694782700685,-0.8558904528617859,-81.70849609375,-0.6250274032354355,-58.09141540527344,-0.0965089797973632,-10.551342964172363,0.0406491160392761,-2.2172300815582275,L,False,True,4,L,400,,0.228,LeftResponse,correct,True,20.0
178,182,1874.7376666666667,5110,1874.675,1874.682,1874.689,0.4806150654262315,38.284728722509286,-0.469750165939331,-37.44153594970703,-0.5487759411334991,-45.47748947143555,-0.1016150712966919,-7.990734577178955,-0.0838452577590942,1.5475507974624634,L,False,True,4,R,50,,0.259,RightResponse,correct,True,33.0
179,183,1877.8936666666666,1758,1877.683,1877.684,1877.687,0.1274305139786989,17.87421098666542,0.1168618202209472,16.466842651367188,0.1422844342887401,15.799115180969238,-0.0508119165897369,-6.952014923095703,0.0127013325691223,4.179910659790039,L,False,True,4,L,200,,0.377,LeftResponse,correct,True,33.0
180,184,1881.0616666666665,5118,1880.651,1880.656,1880.659,0.2508045216014217,29.68137191737934,-0.1930823922157287,-21.409931182861328,-0.2820271290838718,-32.8916015625,-0.160069040954113,-20.557205200195312,-0.198179118335247,-23.328718185424805,L,False,True,4,R,400,,0.24,LeftResponse,incorrect,True,19.0
181,185,1884.2136666666665,5121,1884.002,1884.007,1884.012,0.3659499211493756,32.76368037502747,-0.2972686551511287,-25.823381423950195,-0.2566023468971252,-30.27963638305664,-0.2134260796010494,-20.16461563110352,-0.3607320189476013,-30.6694393157959,L,False,True,4,L,200,,0.363,LeftResponse,correct,True,32.0
182,186,1887.5356666666667,6675,1887.118,1887.125,1887.13,0.315092290116514,26.78560299092,0.005080759525299,-3.625864267349243,0.0203262120485305,-0.1154884099960327,-0.3150513246655464,-26.53905868530273,-0.2642417140305042,-21.943098068237305,L,False,True,4,L,400,,0.355,LeftResponse,correct,True,22.0
183,187,1891.9906666666666,5128,1891.932,1891.937,1891.943,0.4624423539193502,52.13373053910448,-0.4166123270988464,-46.2337646484375,-0.4497180879116058,-47.88223648071289,-0.2007164657115936,-24.090763092041016,-0.2820274457335472,-22.266565322875977,L,False,True,4,L,50,,0.307,LeftResponse,correct,True,32.0
184,188,1895.1876666666665,5135,1895.174,1895.181,1895.188,0.6427964313628773,57.48048665770068,-0.6426156759262085,-56.94158554077149,-0.4852861016988754,-49.083099365234375,0.0152428746223449,7.852527141571045,-0.0914659798145294,-7.414249897003174,L,False,True,4,L,0,,0.301,LeftResponse,correct,True,29.0
185,189,1898.6646666666666,1789,1898.653,1898.657,1898.661,0.2899631546779068,34.30105687454972,0.2540781646966934,29.81953430175781,0.304870456457138,33.212581634521484,-0.1397244334220886,-16.95163345336914,-0.1981788724660873,-20.00267601013184,L,False,True,4,R,0,,0.376,LeftResponse,incorrect,True,28.0
186,190,1901.9366666666665,5149,1901.525,1901.532,1901.538,0.6987022355704049,68.50856789277285,-0.6986606568098068,-68.50294494628906,-0.6173898535780609,-68.36735534667969,-0.0076223760843276,0.8777291178703308,0.002540647983551,-0.2078689336776733,L,False,True,4,R,400,,0.251,LeftResponse,incorrect,True,21.0
187,191,1905.6136666666666,1798,1905.201,1905.209,1905.217,0.8816671535551291,77.7773989498653,0.8816342055797577,77.7701416015625,0.693609107285738,61.34583282470703,-0.0076221525669097,-1.0624794960021973,-0.0940056443214416,-7.252557754516602,L,False,True,4,R,400,,0.33,RightResponse,correct,True,24.0
188,192,1909.7266666666665,5159,1909.512,1909.521,1909.527,0.8955233361909386,76.58985202863892,-0.8508005142211914,-72.17166900634766,-0.8790954351425171,-85.62368774414062,-0.2794647216796875,-25.63699722290039,-0.2871072352863848,-28.89540100097656,L,False,True,4,L,200,,0.331,LeftResponse,correct,True,31.0
189,193,1912.6286666666665,5164,1912.512,1912.519,1912.525,0.6344910583391227,59.87388211782694,-0.5867871046066284,-54.12880325317383,-0.4675035178661346,-43.63216400146485,0.2413706630468368,25.592077255249023,0.3150524124503135,28.363807678222656,L,False,True,4,L,100,,0.316,LeftResponse,correct,True,27.0
190,194,1915.8426666666667,5169,1915.827,1915.835,1915.843,0.8602482053941133,82.28809004167155,-0.8333528190851212,-78.00028991699219,-0.6707018166780472,-75.52494812011719,-0.2134245857596397,-26.21611213684082,-0.2998005598783493,-29.86493682861328,L,False,True,4,L,0,,0.329,LeftResponse,correct,True,31.0
191,195,1919.0736666666667,5172,1918.964,1918.972,1918.978,0.928304939285422,90.66903926954537,-0.9272995330393314,-90.55824279785156,-0.8358147591352463,-86.14434051513672,-0.0431930124759674,-4.4809980392456055,-0.0533536970615386,-0.7160007953643799,L,False,True,4,R,100,,0.384,LeftResponse,incorrect,True,26.0
192,197,1926.1506666666667,5177,1926.041,1926.047,1926.054,0.5865575820594375,56.2225757424732,-0.5843522697687149,-55.77945327758789,-0.6326444447040558,-61.74017333984375,-0.0508155673742294,-7.044899940490723,-0.0558958649635314,-5.358596324920654,L,False,True,4,R,100,,0.389,LeftResponse,incorrect,True,28.0
193,198,1929.9146666666666,6710,1929.509,1929.51,1929.515,0.1499874326737386,20.311453555695408,0.0050814449787139,-6.9061198234558105,0.1016271412372589,-19.424570083618164,-0.1499013304710388,-19.10132598876953,-0.1321146488189697,-31.1120662689209,L,False,True,4,R,400,,0.273,LeftResponse,incorrect,True,23.0
194,199,1933.9326666666666,5191,1933.819,1933.824,1933.829,0.4310802366328824,49.29238815406451,-0.4293921887874603,-48.80616760253906,-0.3429663479328155,-37.738014221191406,-0.0381119223311543,-6.9063401222229,-0.0660507082939148,-2.4711461067199707,L,False,True,4,L,100,,0.252,LeftResponse,correct,True,31.0
195,201,2309.103666666667,5324,2308.99,2308.996,2309.003,0.502777828329728,43.18773053460348,-0.4674170017242431,-42.30801773071289,-0.5563605427742004,-57.02161407470703,-0.1852211952209472,-8.672468185424805,-0.1496486663818359,-7.931999683380127,L,False,True,5,R,100,,0.388,LeftResponse,incorrect,True,30.0
196,206,2335.349666666667,5354,2335.139,2335.146,2335.15,0.3542414537583634,32.677610656646586,-0.3277105689048767,-28.93722152709961,-0.3099604547023773,-28.20179748535156,-0.1345094442367553,-15.181022644042969,-0.0964062213897705,-9.294672966003418,L,False,True,5,R,200,,0.378,LeftResponse,incorrect,True,30.0
197,211,2360.616666666667,5372,2360.553,2360.56,2360.567,0.6205319615308444,49.64482948591162,-0.6170096397399902,-49.466739654541016,-0.5335594266653061,-49.75294494628906,-0.0660228729248046,-4.2012810707092285,-0.1547334194183349,-12.706524848937988,L,False,True,5,L,50,,0.357,LeftResponse,correct,True,31.0
198,212,2366.5626666666667,5375,2366.145,2366.151,2366.157,0.4225930617311482,43.18013205026612,-0.4188903570175171,-42.37419509887695,-0.3048922205343842,-28.31803321838379,-0.055819034576416,-8.30369758605957,0.0126805305480957,2.720531463623047,L,False,True,5,R,400,,0.389,LeftResponse,incorrect,True,26.0
199,214,2373.8856666666666,5380,2373.874,2373.878,2373.882,0.2608023606106464,29.38145444960797,-0.2234727144241333,-25.25598526000977,-0.1803959654644131,-21.06545829772949,-0.1344537734985351,-15.01349639892578,-0.0887589454650878,-9.290938377380373,L,False,True,5,R,0,,0.254,LeftResponse,incorrect,True,29.0
200,217,2388.2656666666667,5391,2388.204,2388.21,2388.217,0.3608083296665494,29.95506633861053,-0.3556307554244995,-29.305206298828125,-0.4776666760444641,-55.827903747558594,-0.0609049797058105,-6.205713748931885,-0.1674959659576416,-21.201305389404297,L,False,True,5,L,50,,0.26,LeftResponse,correct,True,30.0
201,218,2390.9596666666666,3409,2390.95,2390.953,2390.961,0.3292813661942227,34.36168342010268,-0.1422411799430847,-20.25082778930664,-0.1778554245829582,-19.88747215270996,0.2969741821289062,27.760210037231445,0.2765424251556396,25.55655670166016,L,False,True,5,R,0,,0.256,LeftResponse,incorrect,True,32.0
202,223,2412.675666666667,5410,2412.665,2412.67,2412.675,0.3341673771354886,35.76682520495933,-0.3302944153547287,-35.408546447753906,-0.3582205772399902,-32.54248809814453,0.0507290363311767,5.049814224243164,0.0126843452453613,2.6292643547058105,L,False,True,5,L,0,,0.247,LeftResponse,correct,True,35.0
203,225,2424.695666666667,5428,2424.686,2424.691,2424.695,0.212593587362761,25.755337228356783,-0.1854416131973266,-24.54861259460449,-0.3683800399303436,-36.65284729003906,-0.1039588451385498,-7.791213989257812,-0.1318807601928711,-12.127692222595217,L,False,True,5,L,0,,0.285,LeftResponse,correct,True,34.0
204,226,2428.092666666667,5430,2427.986,2427.989,2427.992,0.1799926717124377,23.58861326129269,-0.1778143644332885,-23.34684562683105,-0.3023461103439331,-38.20327377319336,-0.0279179811477661,-3.3686013221740723,-0.1699190139770507,-20.219858169555664,L,False,True,5,L,100,,0.318,LeftResponse,correct,True,33.0
205,227,2431.3526666666667,5435,2431.142,2431.147,2431.152,0.3487123773985165,36.214502073666,-0.3453655242919922,-35.89854431152344,-0.3607403635978699,-39.0997428894043,-0.0481972694396972,-4.773329734802246,0.0152196884155273,1.6833786964416504,L,False,True,5,R,200,,0.358,LeftResponse,incorrect,True,33.0
206,229,2438.759666666667,2121,2438.649,2438.651,2438.654,0.1466337968070847,19.567659413429624,0.142267107963562,19.561664581298828,0.1854710876941681,23.12036895751953,0.0355181694030761,0.4843281209468841,0.0202960968017578,-0.6687936782836914,L,False,True,5,L,100,,0.243,LeftResponse,correct,True,32.0
207,233,2455.516666666667,5476,2455.506,2455.513,2455.52,0.5852414674979283,49.45249770443595,-0.58179771900177,-49.42691421508789,-0.6453276798129082,-65.36384582519531,0.0633955001831054,-1.5904968976974487,-0.124324083328247,-1.0841275453567505,L,False,True,5,L,0,,0.365,RightResponse,incorrect,True,33.0
208,234,2458.501666666667,5477,2458.391,2458.397,2458.403,0.7177063528880012,70.72933355314069,-0.6960588097572327,-69.46791076660156,-0.5157740637660027,-52.36292266845703,-0.1749415397644043,-13.298420906066896,-0.11924409866333,-13.238449096679688,L,False,True,5,R,100,,0.347,RightResponse,correct,True,31.0
209,236,2466.433666666667,5485,2466.022,2466.028,2466.034,0.4968918314052752,50.6974199746827,-0.4928280115127563,-49.62874221801758,-0.5462657958269119,-60.51657485961914,-0.0634195804595947,-10.354532241821287,-0.06343674659729,-9.78089714050293,L,False,True,5,R,400,,0.223,RightResponse,correct,True,29.0
210,237,2469.851666666667,5489,2469.74,2469.745,2469.752,0.434878011615754,48.549230830985366,-0.406431496143341,-45.4005126953125,-0.4014437645673752,-44.18658447265625,-0.154700756072998,-17.19945526123047,-0.1851725578308105,-12.728167533874512,L,False,True,5,L,100,,0.309,LeftResponse,correct,True,30.0
211,238,2473.373666666667,5492,2473.312,2473.319,2473.325,0.6341089380791977,62.89229092839361,-0.617405116558075,-61.902435302734375,-0.5157101154327393,-54.84941101074219,-0.1445858478546142,-11.114349365234377,-0.1141624450683593,-10.655160903930664,L,False,True,5,L,50,,0.368,LeftResponse,correct,True,29.0
212,239,2476.1296666666667,5494,2476.07,2476.072,2476.075,0.1943966185392225,24.21226924544439,-0.1626092568039894,-21.365571975708008,-0.1422808766365051,-21.2266902923584,-0.1065282821655273,-11.390624046325684,-0.1928107738494873,-25.438356399536133,L,False,True,5,L,50,,0.353,LeftResponse,correct,True,28.0
