,trialIndex,targetOnsetTime,Unnamed: 0,startTime,peakVelocityTime,stopTime,amplitude,peakVelocity,saccade_vec_left_x,peak_velocity_vec_left_x,saccade_vec_right_x,peak_velocity_vec_right_x,saccade_vec_left_y,peak_velocity_vec_left_y,saccade_vec_right_y,peak_velocity_vec_right_y,whichEye,otherEyeMissingData,isBinocular,blockId,arrowDirection,latency,blankDuration,fixationDurationInSec,response,result,isSaccade,blankDurationInFrameCount
0,0,175.50066666666666,823,175.29,175.296,175.301,0.7001320033650299,73.7267486096554,0.5029915571212769,55.77303314208984,0.4471067190170288,41.87108612060547,0.4870157241821289,48.21827697753906,0.2892243862152099,23.89421844482422,L,False,True,0,R,200,,0.38,RightResponse,correct,True,15.0
1,1,182.07066666666668,835,181.657,181.661,181.666,0.2950778226948919,33.83335434106014,0.2870187163352966,32.512046813964844,0.1574664115905761,14.707559585571287,0.0684921741485595,9.362834930419922,0.020292043685913,1.8216460943222048,L,False,True,0,R,400,,0.295,LeftResponse,incorrect,True,15.0
2,2,187.10866666666666,8359,186.697,186.7,186.706,0.3710305944737666,45.19776767950653,-0.3708917498588562,-44.77937698364258,-0.4648058414459228,-50.845458984375,-0.0101494789123535,-6.135601043701172,-0.0481922626495361,-7.793655872344971,L,False,True,0,R,400,,0.389,RightResponse,correct,True,18.0
3,3,191.36766666666668,851,191.357,191.361,191.366,0.3277818224492345,36.93199906407084,0.3276934027671814,36.8799057006836,0.3606882095336914,39.463035583496094,-0.0076129436492919,-1.960895299911499,0.0279054641723632,-3.874431848526001,L,False,True,0,L,0,,0.387,LeftResponse,correct,True,15.0
4,4,195.82666666666668,862,195.756,195.76,195.764,0.2586641632026854,26.67463270652511,0.2438516616821289,25.516660690307617,0.2946224212646484,34.72652053833008,-0.0862758159637451,-7.774063110351562,0.0811924934387207,6.504559516906738,L,False,True,0,L,50,,0.376,LeftResponse,correct,True,15.0
5,5,199.05766666666668,12918,199.035,199.041,199.047,0.5921311398982742,64.0010162387001,-0.2184095382690429,-27.081357955932617,-0.0533398985862731,-7.273632526397705,-0.5503785610198975,-57.989051818847656,-0.4437859058380127,-43.73127746582031,L,False,True,0,L,0,,0.315,LeftResponse,correct,True,14.0
6,6,203.60366666666667,882,203.494,203.499,203.505,0.4080830481536378,45.9343439970656,0.4013950228691101,45.45146942138672,0.4597371220588684,48.675270080566406,0.0735785961151123,6.642882347106934,0.0355081558227539,-5.487626075744629,L,False,True,0,L,100,,0.293,LeftResponse,correct,True,15.0
7,7,208.34166666666667,892,208.232,208.235,208.239,0.2619636332424999,31.14071646396185,0.2616562247276306,31.10785675048828,0.2895501255989074,31.51785087585449,-0.0126872062683105,-1.430199384689331,0.1014668941497802,9.570046424865724,L,False,True,0,R,100,,0.344,RightResponse,correct,True,14.0
8,8,213.49166666666667,906,213.432,213.436,213.441,0.3353378642969558,39.92351209701473,0.3302214741706848,38.93392181396485,0.3225547075271606,34.3567008972168,-0.0583546161651611,-8.833829879760742,-0.0710320472717285,-4.082009315490723,L,False,True,0,R,50,,0.311,LeftResponse,incorrect,True,14.0
9,10,223.60466666666667,927,223.392,223.398,223.403,0.5789199043948714,61.736293611545456,0.4775360822677612,53.06516647338867,0.5359684228897095,53.7369270324707,0.327272891998291,31.550880432128903,0.4539241790771484,45.04819869995117,L,False,True,0,L,200,,0.213,LeftResponse,correct,True,17.0
10,11,227.85566666666668,938,227.844,227.849,227.854,0.3477996593887709,39.68270938770804,0.330244779586792,37.251007080078125,0.3988507986068725,38.9154167175293,0.1091008186340332,13.677715301513672,0.1521122455596923,15.4188232421875,L,False,True,0,R,0,,0.326,RightResponse,correct,True,13.0
11,12,232.06066666666666,8477,232.046,232.05,232.054,0.3085041528125034,33.26477222755231,-0.2845334708690643,-31.40936279296875,-0.3937071561813354,-46.482608795166016,-0.1192288398742675,-10.95431423187256,-0.093846321105957,-13.235273361206056,L,False,True,0,R,0,,0.235,RightResponse,correct,True,12.0
12,13,237.12766666666667,960,237.116,237.12,237.125,0.3560982435751832,38.98360615624777,0.3556549549102783,38.86808776855469,0.4419225454330444,53.24410629272461,-0.0177626609802246,-2.9988834857940674,-0.005073070526123,1.1298773288726809,L,False,True,0,R,0,,0.356,LeftResponse,incorrect,True,11.0
13,14,241.59866666666667,970,241.477,241.481,241.486,0.2860790642844296,33.4346052371077,0.281985878944397,32.3325080871582,0.3200507760047912,37.40841674804688,0.0482202768325805,8.51362133026123,0.0634198188781738,10.35475730895996,L,False,True,0,L,100,,0.261,LeftResponse,correct,True,13.0
14,15,247.05266666666668,982,246.94,246.945,246.95,0.3022846392211751,34.771812370970984,0.3022739887237549,34.6149787902832,0.4190737009048462,48.741397857666016,-0.0025374889373779,-3.2988147735595703,-0.0761139392852783,-9.75640106201172,L,False,True,0,R,100,,0.321,RightResponse,correct,True,12.0
15,17,256.2286666666667,1005,256.011,256.014,256.017,0.188197272976081,21.236842949554028,0.175284206867218,20.04564666748047,0.2565233707427978,31.517166137695312,-0.0685102939605712,-7.012527942657471,-0.005073070526123,0.6687296032905579,L,False,True,0,L,200,,0.325,LeftResponse,correct,True,16.0
16,18,260.5636666666667,1014,260.15,260.156,260.162,0.7339781877340933,76.09968414459175,0.6477753520011902,67.4794692993164,0.7036144733428955,69.78643798828125,0.3451247215270996,35.180721282958984,0.4793250560760498,46.31882858276367,L,False,True,0,R,400,,0.389,RightResponse,correct,True,20.0
17,19,264.3226666666667,5057,264.098,264.104,264.108,0.3997556902394943,40.210585181587774,-0.0558754205703735,1.47764790058136,0.0076199769973754,7.277534450622625e-07,0.3958314657211303,40.18342590332031,0.4412829875946045,42.47078323364258,L,False,True,0,L,200,,0.212,LeftResponse,correct,True,15.0
18,20,267.79466666666667,8562,267.684,267.688,267.694,0.371526184748852,40.18542839784031,-0.3708236813545227,-40.130558013916016,-0.2183852195739746,-20.384376525878903,-0.0228364467620849,-2.099278211593628,-0.1445608139038086,-16.969432830810547,L,False,True,0,R,100,,0.333,LeftResponse,incorrect,True,11.0
19,21,272.44166666666666,1038,272.027,272.033,272.038,0.4568815677539087,46.31522842625121,0.4496097564697265,46.04648208618164,0.5384988188743591,53.135231018066406,0.0811901092529296,4.9821553230285645,-0.005070686340332,0.8989219069480896,L,False,True,0,L,400,,0.373,LeftResponse,correct,True,19.0
20,22,278.99466666666666,1049,278.783,278.788,278.792,0.345474083261362,40.62408587952206,0.3454647660255432,40.3425178527832,0.4724342823028564,51.19271469116211,0.0025372505187988,4.774683952331543,0.068479299545288,5.533696174621582,L,False,True,0,L,200,,0.201,LeftResponse,correct,True,14.0
21,24,288.0916666666667,1082,287.682,287.684,287.688,0.2267501267775472,24.713898727724025,0.2210011482238769,23.18552017211914,0.170173704624176,25.14492416381836,-0.0507357120513916,-8.556193351745605,-0.0431125164031982,-6.224952697753906,L,False,True,0,L,400,,0.232,LeftResponse,correct,True,18.0
22,25,291.6806666666667,1092,291.603,291.611,291.616,0.3680812357425461,33.40223414126427,0.3251553773880005,29.46772575378418,0.4800514578819275,46.8978271484375,-0.1725044250488281,-15.727758407592772,-0.142003059387207,-11.29526710510254,L,False,True,0,L,50,,0.354,LeftResponse,correct,True,17.0
23,26,294.36966666666666,1099,294.258,294.263,294.268,0.6236868609540925,68.5095606848525,0.5993483066558838,66.93067932128906,0.6729688048362732,67.11553192138672,0.1725308895111084,14.623408317565918,0.1166510581970214,12.840428352355955,L,False,True,0,L,100,,0.228,LeftResponse,correct,True,14.0
24,28,304.4286666666667,1124,304.017,304.02,304.025,0.2798265673899379,33.53234484812197,0.2794120907783508,33.41402816772461,0.3682919144630432,41.60858154296875,-0.0152246952056884,2.8144044876098637,-0.2561676502227783,-17.50149154663086,L,False,True,0,L,400,,0.269,LeftResponse,correct,True,17.0
25,29,307.64666666666665,13165,307.537,307.542,307.547,0.4991979661749796,52.015599016852526,-0.3631757497787475,-38.51118087768555,-0.2209439277648925,-15.976359367370604,-0.3424937725067138,-34.96443176269531,-0.299236536026001,-25.750932693481445,L,False,True,0,L,100,,0.256,LeftResponse,correct,True,13.0
26,30,310.8606666666667,1148,310.639,310.643,310.649,0.3545395328357463,35.496988539595,0.3505149483680725,34.958946228027344,0.3048076033592224,30.896387100219727,-0.0532686710357666,-6.1569695472717285,-0.0481727123260498,-5.99285364151001,L,False,True,0,R,200,,0.337,RightResponse,correct,True,13.0
27,31,318.07666666666665,8704,318.052,318.057,318.061,0.2368765652707841,26.31850333574149,-0.2362099289894104,-26.0452823638916,-0.2412471771240234,-24.26317405700684,0.0177588462829589,3.78244423866272,0.1521277427673339,16.964208602905273,L,False,True,0,R,0,,0.208,RightResponse,correct,True,14.0
28,32,322.5896666666667,8719,322.379,322.383,322.387,0.3032495275776253,32.89025405673941,-0.2819568514823913,-31.35944175720215,-0.1777657270431518,-18.515361785888672,-0.1116271018981933,-9.917369842529297,-0.0456275939941406,-8.341792106628418,L,False,True,0,R,200,,0.394,RightResponse,correct,True,12.0
29,33,326.5026666666667,1191,326.489,326.494,326.499,0.3663716380941261,41.84724194961312,0.3505393266677856,40.91950607299805,0.469883382320404,41.954864501953125,-0.1065380573272705,-8.762743949890137,-0.126755952835083,-12.16836166381836,L,False,True,0,L,0,,0.261,RightResponse,incorrect,True,13.0
30,34,329.7796666666667,1199,329.367,329.372,329.377,0.4146953268714778,39.99125927929052,0.365782618522644,37.89438247680664,0.4342734813690185,45.87590789794922,-0.1953849792480468,-12.77953815460205,-0.230649709701538,-23.478843688964844,L,False,True,0,L,400,,0.295,LeftResponse,correct,True,16.0
31,35,332.62266666666665,5210,332.55,332.556,332.564,0.6726646914612973,60.27486870795241,-0.0863614678382873,-14.893357276916504,-0.2005969285964965,-18.09719657897949,0.667097806930542,58.405887603759766,0.976076364517212,82.2517318725586,L,False,True,0,R,50,,0.219,RightResponse,correct,True,16.0
32,36,336.92766666666665,1219,336.815,336.822,336.827,0.3868140622066309,36.35932425657055,0.3861398100852966,36.05071640014648,0.4444994330406189,44.95857620239258,0.0228290557861328,-4.7271881103515625,0.0887367725372314,7.07623291015625,L,False,True,0,R,100,,0.259,LeftResponse,incorrect,True,12.0
33,37,344.4676666666667,1233,344.406,344.411,344.415,0.3282938628959743,38.74024452380567,0.3251026272773742,37.6595344543457,0.472411036491394,46.13374710083008,0.0456633567810058,9.086584091186523,0.1014444828033447,9.844854354858398,L,False,True,0,R,50,,0.327,RightResponse,correct,True,15.0
34,39,354.29766666666666,8810,354.236,354.239,354.242,0.2217054931578279,26.12288922404248,-0.2209929823875427,-26.02491569519043,-0.1346099376678466,-18.54054832458496,-0.0177602767944335,-2.2603328227996826,-0.0887765884399414,-11.137426376342772,L,False,True,0,R,50,,0.264,RightResponse,correct,True,14.0
35,43,443.3686666666667,1616,443.355,443.361,443.366,0.3617133297401472,35.31559416946162,0.3556504845619201,34.91859436035156,0.3886586427688598,38.38139343261719,0.0659489631652832,5.280431747436523,0.0735523700714111,14.272703170776367,L,False,True,1,L,0,,0.363,RightResponse,incorrect,True,16.0
36,45,455.1806666666667,9216,454.769,454.772,454.777,0.2367713113539207,31.456632903149583,-0.2336922287940979,-30.065963745117188,-0.1955575942993164,-18.932661056518555,-0.0380604267120361,-9.249733924865724,0.0608792304992675,7.402242183685303,L,False,True,1,R,400,,0.239,RightResponse,correct,True,15.0
37,46,458.3826666666667,1657,458.363,458.37,458.377,0.8757574300580823,79.06531607659188,0.8433683216571808,78.5412826538086,0.8737684488296509,78.28099060058594,0.2359681129455566,9.087965965270996,0.2181119918823242,17.568603515625,L,False,True,1,R,0,,0.292,RightResponse,correct,True,19.0
38,47,463.5866666666667,1663,463.573,463.578,463.582,0.2289777623866084,26.979923385232333,0.2184911072254181,25.336727142333984,0.2362172603607177,28.05537796020508,0.0685014724731445,9.27181339263916,0.0786633491516113,8.58160400390625,L,False,True,1,L,0,,0.27,LeftResponse,correct,True,18.0
39,48,466.9716666666667,1669,466.76,466.766,466.771,0.3169538478435613,35.708020274930455,0.2946962416172027,33.85768508911133,0.5283705592155457,52.09896087646485,-0.1166784763336181,-11.345478057861328,-0.0228142738342285,-8.920064926147461,L,False,True,1,L,200,,0.254,LeftResponse,correct,True,11.0
40,50,476.1936666666667,1690,476.132,476.135,476.139,0.3085667242402383,34.5818616171544,0.2895902395248413,31.59151077270508,0.1396952867507934,16.67099380493164,-0.1065406799316406,-14.067039489746094,-0.1826264858245849,-21.69869041442871,L,False,True,1,R,50,,0.311,RightResponse,correct,True,13.0
41,51,480.4186666666667,1700,480.008,480.015,480.021,0.6841754746696442,69.73581033013477,0.6833793818950653,69.67803955078125,0.7874644100666046,80.41019439697266,0.0329954624176025,2.837965250015259,0.0938308238983154,12.634349822998049,L,False,True,1,L,400,,0.292,LeftResponse,correct,True,14.0
42,52,484.31166666666667,1710,484.297,484.302,484.308,0.4281201249752402,41.622462836451085,0.4064587354660034,41.59291076660156,0.4419962167739868,44.56855010986328,0.1344549655914306,1.5681793689727783,0.1191804409027099,10.765584945678713,L,False,True,1,L,0,,0.312,LeftResponse,correct,True,17.0
43,54,493.38366666666667,1728,493.164,493.167,493.171,0.214880012087737,24.391162352187724,0.2133774161338806,23.508337020874023,0.2311305403709411,28.35433006286621,-0.025367259979248,-6.502837181091309,-0.0177526473999023,-2.4208626747131348,L,False,True,1,R,200,,0.243,LeftResponse,incorrect,True,10.0
44,55,497.35566666666665,9297,496.943,496.948,496.952,0.3206291863141039,34.28320732636557,-0.3073460459709167,-34.105857849121094,-0.286993145942688,-31.49295997619629,0.0913317203521728,3.482637643814087,0.0811727046966552,8.001852989196777,L,False,True,1,R,400,,0.32,RightResponse,correct,True,13.0
45,56,500.01166666666666,1742,499.945,499.952,499.958,0.4303563231716952,40.295935525784856,0.4292783737182617,40.295928955078125,0.5333324670791626,52.3418197631836,-0.0304408073425292,0.0230118557810783,-0.0126779079437255,3.8726866245269775,L,False,True,1,L,50,,0.233,LeftResponse,correct,True,12.0
46,57,505.6616666666667,1754,505.599,505.602,505.606,0.2300496179187506,29.60671247180384,0.182894766330719,23.808677673339844,0.3453847169876098,37.239219665527344,-0.1395432949066162,-17.598417282104492,-0.1420862674713134,-16.79217529296875,L,False,True,1,R,50,,0.209,LeftResponse,incorrect,True,11.0
47,61,525.3546666666667,1799,525.242,525.248,525.253,0.5396448284410091,54.30844149405265,0.5335036814212799,54.20539093017578,0.5486331582069397,47.79933547973633,-0.0811810493469238,-3.3440113067626958,-0.1140649318695068,-14.517019271850586,L,False,True,1,R,100,,0.247,LeftResponse,incorrect,True,15.0
48,63,533.7106666666667,1824,533.647,533.65,533.655,0.3736284145936805,42.29826237699691,0.3327454924583435,36.39155960083008,0.1650769710540771,17.661983489990234,-0.1699371337890625,-21.559160232543945,-0.1445403099060058,-15.168950080871582,L,False,True,1,R,50,,0.357,RightResponse,correct,True,14.0
49,64,536.5876666666667,13753,536.478,536.482,536.488,0.4929515754965969,51.46934777593587,0.2387483119964599,29.555131912231445,0.3708116412162781,40.91435241699219,-0.4312777519226074,-42.137725830078125,-0.3729712963104248,-42.855953216552734,L,False,True,1,L,100,,0.233,LeftResponse,correct,True,18.0
50,65,539.9306666666666,9408,539.87,539.875,539.88,0.4328518737794929,49.23858326988627,-0.424170970916748,-47.58903121948242,-0.2615456581115722,-28.85559463500977,-0.0862538814544677,-12.638124465942385,-0.0938296318054199,-6.017068862915039,L,False,True,1,L,50,,0.226,LeftResponse,correct,True,13.0
51,66,543.3906666666667,1856,543.375,543.383,543.39,0.7375230059537712,72.08508849178766,0.7366673350334167,72.05107879638672,0.8204078078269958,79.2950439453125,-0.0355165004730224,-2.214052200317383,0.09383225440979,9.314756393432615,L,False,True,1,R,0,,0.348,RightResponse,correct,True,16.0
52,67,548.3326666666667,1866,548.221,548.226,548.233,0.5170741310768737,53.90121891901143,0.5156717300415039,53.87633514404297,0.5130180716514587,53.54054641723633,-0.0380568504333496,1.6376545429229736,-0.1344528198242187,-7.403339385986328,L,False,True,1,L,100,,0.387,LeftResponse,correct,True,17.0
53,68,551.6126666666667,9438,551.401,551.406,551.411,0.501161848811374,52.42631403305699,-0.4037604331970215,-44.06997299194336,-0.3224700689315796,-31.785276412963867,0.2968850135803222,28.39640617370605,0.1876547336578369,18.48784065246582,L,False,True,1,L,200,,0.356,LeftResponse,correct,True,13.0
54,71,567.1546666666667,13810,567.134,567.136,567.138,0.1858719974059962,27.54490675896448,0.1066818833351135,16.071504592895508,0.1726670265197754,24.076732635498047,-0.1522083282470703,-22.370262145996094,-0.0862648487091064,-15.13088035583496,L,False,True,1,L,0,,0.293,LeftResponse,correct,True,15.0
55,72,570.9226666666667,1911,570.71,570.718,570.724,0.68999845224777,58.7155020127036,0.6554147005081177,57.898807525634766,0.6553376913070679,63.018436431884766,-0.2157068252563476,-9.75900936126709,0.1444885730743408,7.443883895874023,L,False,True,1,L,200,,0.38,LeftResponse,correct,True,12.0
56,73,573.6706666666666,1918,573.56,573.565,573.57,0.4646231112353514,48.676066326268966,0.3530939817428589,40.32091522216797,0.142230749130249,15.493108749389648,0.3019921779632568,27.268722534179688,0.1242880821228027,11.09086799621582,L,False,True,1,L,100,,0.265,LeftResponse,correct,True,16.0
57,74,578.3626666666667,1926,578.152,578.156,578.161,0.3315918013731947,39.03388196694144,0.3276855945587158,38.40303039550781,0.1929594278335571,22.66564178466797,-0.0507471561431884,-6.989363193511963,0.0786571502685546,11.279897689819336,L,False,True,1,R,200,,0.25,LeftResponse,incorrect,True,11.0
58,75,581.7766666666666,9509,581.362,581.367,581.372,0.3394833079905426,34.96266296100045,-0.32766193151474,-34.17463302612305,-0.274225115776062,-24.444843292236328,0.0888063907623291,7.381209850311279,0.032952070236206,3.986448049545288,L,False,True,1,R,400,,0.325,RightResponse,correct,True,12.0
59,76,585.3696666666667,1943,585.358,585.366,585.372,0.8146596194425476,79.84166070965307,0.7950716316699982,79.4625473022461,0.8661889731884003,79.02446746826172,0.1775708198547363,7.77138090133667,0.2941668033599853,16.460153579711914,L,False,True,1,R,0,,0.309,RightResponse,correct,True,14.0
60,77,589.3086666666667,1954,589.097,589.099,589.104,0.2543632759149959,31.512066660351547,0.2158995866775512,26.230756759643555,0.2818859815597534,29.13462829589844,0.1344918012619018,17.46303939819336,0.0760817527770996,7.37738037109375,L,False,True,1,R,200,,0.282,RightResponse,correct,True,14.0
61,78,592.8176666666667,5800,592.704,592.713,592.722,1.270451473841731,102.60385714277156,0.4088890552520752,52.968727111816406,0.0863349437713623,37.65574645996094,1.2028535604476929,87.8741455078125,0.9740521907806396,84.30915832519531,L,False,True,1,R,100,,0.251,RightResponse,correct,True,15.0
62,79,596.3736666666666,9548,596.257,596.263,596.268,0.3607132906680195,34.136171689762755,-0.3606330156326294,-33.5463752746582,-0.2031317949295044,-20.81991195678711,-0.0076096057891845,6.318142414093018,0.1445193290710449,1.7518054246902466,L,False,True,1,R,100,,0.222,RightResponse,correct,True,14.0
63,85,704.0676666666667,2352,704.008,704.011,704.015,0.2058485885689403,25.02461928644376,0.2057860493659973,25.01304244995117,0.0990818738937377,12.656599044799805,0.0050737857818603,-0.7611030340194702,0.0558104515075683,6.895654201507568,L,False,True,2,R,50,,0.276,RightResponse,correct,True,12.0
64,89,720.9716666666667,2408,720.859,720.863,720.867,0.2581210222582438,29.87850813528001,0.2540498375892639,29.19263458251953,0.1930632591247558,17.27415657043457,-0.0456633567810058,-6.365165710449219,-0.0355067253112793,-3.7582037448883057,L,False,True,2,L,100,,0.297,LeftResponse,correct,True,13.0
65,90,725.7386666666666,2413,725.325,725.331,725.337,0.4492137726408381,48.09480633902944,0.4344628751277923,42.73040008544922,0.3861659169197082,39.10222244262695,-0.114171028137207,-22.07313537597656,-0.1065142154693603,-11.665721893310549,L,False,True,2,R,400,,0.23,RightResponse,correct,True,11.0
66,91,729.6846666666667,2424,729.475,729.478,729.483,0.2613154506687235,25.6488224485273,0.2159645780920982,22.358644485473636,0.2896294295787811,29.493972778320312,-0.1471226215362548,-12.56793975830078,-0.1724367141723632,-19.595346450805664,L,False,True,2,L,200,,0.386,LeftResponse,correct,True,13.0
67,93,738.9526666666667,10068,738.74,738.747,738.753,0.7448532607282906,79.09670739696678,-0.7316668033599854,-78.75594329833984,-0.6477375030517578,-66.13602447509766,0.1395351886749267,7.334201812744141,0.0431175231933593,5.856261730194092,L,False,True,2,R,200,,0.383,RightResponse,correct,True,12.0
68,94,742.5956666666667,2457,742.188,742.195,742.203,1.0947803247612142,91.61930236498284,1.0874049365520475,91.60382843017578,0.9908322840929032,92.59423065185548,0.126863956451416,-1.6838001012802124,0.0202856063842773,-0.8529202938079834,L,False,True,2,R,400,,0.392,RightResponse,correct,True,10.0
69,95,745.9136666666667,10095,745.851,745.854,745.858,0.1909598949860239,22.10258915502284,-0.1905381083488464,-22.056283950805664,-0.1346297264099121,-16.557432174682617,-0.0126850605010986,-1.429960012435913,0.0329611301422119,4.102879524230957,L,False,True,2,R,50,,0.396,RightResponse,correct,True,11.0
70,96,750.2606666666667,2476,750.201,750.209,750.215,0.5156896825629854,44.58658598950464,0.5056078061461449,42.40766143798828,0.5106774047017097,51.923038482666016,-0.1014721393585205,-13.767857551574709,0.0329620838165283,5.232449531555176,L,False,True,2,R,50,,0.27,RightResponse,correct,True,10.0
71,97,753.1126666666667,10111,753.101,753.107,753.112,0.4907597944604958,49.18715099249194,-0.4826610088348388,-48.47346496582031,-0.3225896954536438,-30.27328872680664,-0.0887892246246337,-8.348593711853027,-0.141977310180664,-13.921578407287598,L,False,True,2,L,0,,0.356,LeftResponse,correct,True,13.0
72,99,761.4936666666666,10138,761.481,761.485,761.49,0.3015929258031182,30.58289311989117,-0.2997830212116241,-29.93217086791992,-0.1904972195625305,-21.889848709106445,-0.0329914093017578,-6.275228977203369,0.088796854019165,6.757785320281982,L,False,True,2,L,0,,0.277,LeftResponse,correct,True,12.0
73,100,765.0536666666667,2512,764.839,764.843,764.848,0.282950052150955,30.65233638843218,0.2566124200820923,27.647647857666016,0.3073797821998596,30.345428466796875,-0.1192090511322021,-13.235304832458496,-0.1724100112915039,-19.730466842651367,L,False,True,2,R,200,,0.324,RightResponse,correct,True,11.0
74,103,776.2526666666666,2541,776.242,776.246,776.25,0.1807835203664791,21.88897542994517,0.1727573573589325,20.971031188964844,0.2641863226890564,30.483177185058597,0.0532689094543457,6.272407531738281,0.1243014335632324,13.698415756225586,L,False,True,2,R,0,,0.38,RightResponse,correct,True,11.0
75,104,779.6876666666667,2550,779.617,779.621,779.625,0.2621289635658934,28.82153357511732,0.2134166955947876,22.42721366882324,0.2997632026672363,34.41054916381836,-0.1522002220153808,-18.102510452270508,-0.136934757232666,-16.50599479675293,L,False,True,2,L,50,,0.362,LeftResponse,correct,True,9.0
76,105,782.1726666666667,10187,782.061,782.067,782.071,0.5195137170439222,50.13291817102873,-0.3175630271434784,-31.70989799499512,-0.1701844334602356,-15.540571212768556,-0.4111547470092773,-38.83029556274414,-0.2816078662872314,-27.583518981933597,L,False,True,2,L,100,,0.234,LeftResponse,correct,True,12.0
77,106,786.5566666666667,2563,786.148,786.152,786.157,0.2272599549057104,25.457836148159625,0.2261096239089965,25.35930633544922,0.15494304895401,20.38983726501465,-0.0228369235992431,2.237633466720581,0.0482075214385986,6.850519180297852,L,False,True,2,L,400,,0.277,LeftResponse,correct,True,8.0
78,107,789.7916666666666,2572,789.782,789.787,789.791,0.3322897553296752,37.99279495228181,0.2261190116405487,27.231290817260746,0.3937589526176452,42.40192031860352,-0.2434885501861572,-26.49357032775879,-0.1344201564788818,-13.995152473449709,L,False,True,2,R,0,,0.287,LeftResponse,incorrect,True,10.0
79,108,792.6936666666667,2577,792.582,792.588,792.594,0.583513139777935,61.30473097504812,0.5665823146700859,60.81590270996094,0.637642502784729,66.35161590576172,0.1395423412322998,7.726319789886475,0.134394884109497,7.284358501434326,L,False,True,2,R,100,,0.339,RightResponse,correct,True,11.0
80,110,800.1876666666667,10229,800.162,800.168,800.175,0.5827679509508495,59.471246552880096,-0.5767206400632858,-57.256744384765625,-0.6274863481521606,-54.34342956542969,-0.0837364196777343,-16.077760696411133,-0.1217255592346191,-9.151900291442873,L,False,True,2,L,0,,0.207,LeftResponse,correct,True,13.0
81,111,803.5936666666666,2607,803.483,803.49,803.495,0.5222251487446907,48.95997458153602,0.5208374187350273,48.87369918823242,0.4902845621109009,48.9604606628418,-0.0380458831787109,-2.905277729034424,-0.017747163772583,-9.12735080718994,L,False,True,2,R,100,,0.354,LeftResponse,incorrect,True,10.0
82,112,806.9246666666667,10255,806.864,806.869,806.873,0.2839400746538901,31.59813103255167,-0.2642059922218323,-28.77627944946289,-0.2946580648422241,-29.534839630126957,0.1040055751800537,13.052495002746582,0.1267721652984619,12.100918769836426,L,False,True,2,L,50,,0.319,LeftResponse,correct,True,8.0
83,113,811.1996666666666,2625,810.989,810.994,810.999,0.3319039329789231,33.007486445121096,0.3175918608903885,32.12875747680664,0.4776116907596588,48.03887176513672,-0.0964138507843017,-7.565520763397217,0.0152080059051513,-0.299568623304367,L,False,True,2,L,200,,0.258,LeftResponse,correct,True,10.0
84,114,814.2936666666667,2633,814.283,814.287,814.291,0.2236225820043809,26.22388384459234,0.2235649824142456,26.213491439819336,0.3251613974571228,37.48134994506836,0.0050752162933349,0.7382075786590576,0.0152122974395751,0.8297556638717651,L,False,True,2,L,0,,0.237,LeftResponse,correct,True,12.0
85,115,818.1196666666667,2650,818.009,818.015,818.02,0.3887241487500031,41.28351774685557,0.3886910378932953,41.27104568481445,0.4572765529155731,42.65591430664063,-0.0050735473632812,1.014704704284668,0.0633599758148193,3.363795042037964,L,False,True,2,R,100,,0.384,RightResponse,correct,True,13.0
86,116,821.8246666666666,2655,821.768,821.771,821.776,0.331197276878701,38.525680287953286,0.3099511265754699,36.00703048706055,0.1168519258499145,14.340892791748049,-0.1167130470275878,-13.701160430908203,-0.0734918117523193,-7.925171852111816,L,False,True,2,L,50,,0.259,RightResponse,incorrect,True,7.0
87,117,825.1676666666667,2661,825.053,825.059,825.063,0.2798563567701313,28.90118174446694,0.2693104147911072,28.247652053833008,0.299741268157959,31.498523712158203,-0.0761017799377441,-6.1113386154174805,-0.119131326675415,-10.43818473815918,L,False,True,2,L,100,,0.288,LeftResponse,correct,True,12.0
88,119,832.9956666666667,10322,832.935,832.941,832.945,0.35258892575937,38.6657999982565,-0.2769319117069244,-30.025962829589844,-0.2438794374465942,-23.37166404724121,-0.2182376384735107,-24.361560821533203,-0.2104976177215576,-26.675189971923828,L,False,True,2,L,50,,0.367,LeftResponse,correct,True,10.0
89,122,892.7276666666667,2851,892.67,892.675,892.683,0.5476442285540635,46.80234697519565,0.5055530369281769,42.93352508544922,0.4979142844676971,50.90010070800781,-0.2105476856231689,-18.63255500793457,-0.2613074779510498,-25.43861198425293,L,False,True,3,L,50,,0.226,LeftResponse,correct,True,9.0
90,125,907.6246666666667,2894,907.561,907.567,907.572,0.3391649483619385,33.59119646684809,0.3124672770500183,32.701717376708984,0.3734369277954101,37.135990142822266,0.1318979263305664,7.678942680358887,0.0912766456604003,5.025052070617676,L,False,True,3,L,50,,0.378,LeftResponse,correct,True,8.0
91,126,910.9926666666667,10579,910.979,910.983,910.989,0.3654453291698695,32.592436079892835,-0.3479818701744079,-31.889179229736328,-0.2286186218261718,-21.49958229064941,0.1116194725036621,6.734028339385986,-0.0786213874816894,-8.1619234085083,L,False,True,3,R,0,,0.381,RightResponse,correct,True,11.0
92,129,923.9986666666666,10623,923.987,923.992,923.996,0.2735301467510903,29.974155586244493,-0.2718307971954345,-29.95454978942871,-0.241326093673706,-26.14166641235352,0.0304427146911621,1.083951115608215,-0.0532717704772949,-4.888969898223877,L,False,True,3,L,0,,0.288,LeftResponse,correct,True,10.0
93,131,935.1816666666667,10652,934.972,934.977,934.981,0.3746613801129271,39.53774030872116,-0.3683468699455261,-37.296485900878906,-0.1930468678474426,-20.759490966796875,-0.0684962272644043,-13.122692108154297,-0.0735294818878173,-7.191391468048096,L,False,True,3,L,200,,0.272,LeftResponse,correct,True,9.0
94,133,942.2596666666667,10675,942.149,942.156,942.161,0.6650994291604421,61.32649616567428,-0.6300218403339386,-60.60002517700195,-0.3581677675247192,-39.719703674316406,-0.2131425142288208,-9.411486625671388,-0.1470704078674316,-22.036657333374023,L,False,True,3,L,100,,0.248,LeftResponse,correct,True,11.0
95,134,945.6856666666666,10685,945.274,945.28,945.285,0.4616399674655217,52.70030529108002,-0.4445811212062835,-52.05654525756836,-0.3276811242103576,-31.82106208801269,0.1243345737457275,8.212080955505371,0.1116104125976562,8.923962593078613,L,False,True,3,R,400,,0.315,LeftResponse,incorrect,True,7.0
96,135,948.2296666666667,10695,948.119,948.126,948.132,0.7293467982024686,72.5297807434218,-0.7291304916143417,-71.57306671142578,-0.7011401951313019,-66.44294738769531,-0.0177617073059082,-11.741601943969728,-0.0076086521148681,-4.034766674041748,L,False,True,3,L,100,,0.227,LeftResponse,correct,True,10.0
97,137,955.8816666666667,3007,955.47,955.477,955.484,0.7685401096612763,73.28135348303455,0.7088615745306015,68.1375732421875,0.7494731470942497,75.71031951904297,0.2969329357147217,26.970870971679688,0.1572358608245849,17.54482078552246,L,False,True,3,R,400,,0.362,LeftResponse,incorrect,True,10.0
98,138,958.7836666666667,10726,958.671,958.677,958.681,0.4475954496222434,46.83637603177132,-0.3963000178337097,-39.6758918762207,-0.3124375343322754,-31.12794685363769,-0.2080576419830322,-24.889148712158203,-0.246105670928955,-27.193443298339844,L,False,True,3,R,100,,0.249,RightResponse,correct,True,9.0
99,139,964.8876666666666,3023,964.471,964.476,964.484,0.4421796503443554,35.37222407485844,0.4395428448915481,35.15411376953125,0.4064755439758301,35.6120491027832,0.0482175350189209,3.922055721282959,0.0,-0.4151210486888885,L,False,True,3,L,400,,0.254,LeftResponse,correct,True,13.0
100,140,968.6096666666667,10747,968.186,968.191,968.193,0.1873799900795171,22.548085666032843,-0.1575113534927368,-17.29845428466797,-0.1422631740570068,-11.962921142578123,-0.1014959812164306,-14.46304416656494,-0.1521811485290527,-15.309710502624512,L,False,True,3,R,400,,0.252,RightResponse,correct,True,12.0
101,141,973.4556666666667,3037,973.245,973.249,973.253,0.2515735560493182,31.467071744576828,0.2515223622322082,31.434553146362305,0.2921599745750427,31.109973907470703,0.0050749778747558,1.430200219154358,0.0507397651672363,9.225507736206056,L,False,True,3,L,200,,0.21,LeftResponse,correct,True,7.0
102,142,975.9366666666667,3043,975.86,975.868,975.871,0.3815398504545558,35.329687276318985,0.2997950613498688,23.304866790771484,0.3328084051609039,24.435720443725582,0.2359991073608398,26.55315399169922,0.4135003089904785,39.161224365234375,L,False,True,3,R,50,,0.255,LeftResponse,incorrect,True,7.0
103,143,978.9636666666667,10772,978.555,978.56,978.564,0.53729854209909,56.40146023820808,-0.3937798142433166,-44.68977355957031,-0.2413093447685241,-24.546485900878903,-0.3655505180358886,-34.4085578918457,-0.286675214767456,-31.75833320617676,L,False,True,3,L,400,,0.286,RightResponse,incorrect,True,11.0
104,144,982.5396666666667,3058,982.524,982.531,982.536,0.5045317553217723,45.639915646458704,0.4572959244251251,42.519561767578125,0.4268166720867157,39.402793884277344,0.2131495475769043,16.585800170898438,0.1598002910614013,21.39912414550781,L,False,True,3,L,0,,0.343,LeftResponse,correct,True,9.0
105,145,987.5446666666667,10792,987.131,987.137,987.142,0.3293198805544965,35.23396223847017,-0.3226460814476013,-35.05911636352539,-0.3200622797012329,-31.220972061157227,-0.0659627914428711,-3.50577449798584,0.0557901859283447,5.394808292388916,L,False,True,3,L,400,,0.351,LeftResponse,correct,True,14.0
106,146,991.7906666666667,10804,991.727,991.734,991.74,0.5822150238416436,53.5788260705749,-0.5639686584472656,-52.47072219848633,-0.5334302186965942,-55.005489349365234,0.1446156501770019,10.840383529663086,0.1800642013549804,18.306358337402344,L,False,True,3,L,50,,0.385,LeftResponse,correct,True,10.0
107,147,994.6136666666666,3086,994.6,994.604,994.609,0.3286077828514195,37.157380944546816,0.2642140090465545,29.23914337158203,0.4598425030708313,50.48808670043945,-0.195381760597229,-22.929096221923828,-0.1039707660675048,-11.111586570739746,L,False,True,3,L,0,,0.349,LeftResponse,correct,True,8.0
108,148,1000.2426666666667,3095,1000.178,1000.181,1000.187,0.3226660392065829,35.325963602502746,0.3226560652256012,35.29113006591797,0.1676619052886963,12.586067199707031,-0.0025370121002197,-1.5683887004852295,0.0405747890472412,4.910472393035889,L,False,True,3,R,50,,0.262,RightResponse,correct,True,9.0
109,149,1003.3616666666667,10839,1003.148,1003.154,1003.159,0.4280836580995115,45.88270853555322,-0.4064143300056457,-43.43529510498047,-0.4191204309463501,-38.7713508605957,0.1344730854034423,14.785062789916992,0.1673378944396972,10.74077033996582,L,False,True,3,R,200,,0.388,RightResponse,correct,True,6.0
110,150,1007.2536666666666,10850,1007.239,1007.244,1007.248,0.2919688397821429,32.81603652048148,-0.2718428671360016,-30.55628967285156,-0.1879898905754089,-20.115310668945312,-0.1065235137939453,-11.966846466064451,-0.0532529354095459,-4.264736175537109,L,False,True,3,R,0,,0.241,RightResponse,correct,True,7.0
111,151,1010.5476666666667,3122,1010.483,1010.488,1010.494,0.3204904727780163,30.39744921521064,0.3201286941766739,30.11890411376953,0.4089983701705932,41.68524932861328,0.015223741531372,-4.105670928955078,0.0076069831848144,4.241464614868164,L,False,True,3,R,50,,0.379,LeftResponse,incorrect,True,8.0
112,152,1017.5376666666667,3134,1017.473,1017.477,1017.483,0.3028789355297496,32.16150905290555,0.2997913658618927,31.61902618408203,0.0939936637878418,12.586435317993164,-0.0431368350982666,-5.8821635246276855,-0.0735330581665039,-8.851381301879883,L,False,True,3,R,50,,0.277,RightResponse,correct,True,11.0
113,154,1025.3896666666665,3164,1025.278,1025.282,1025.287,0.2690538526802234,31.772248732294557,0.2642255425453186,31.61930084228516,0.154957115650177,17.689624786376953,-0.0507428646087646,-3.113776445388794,-0.1116070747375488,-5.603538513183594,L,False,True,3,R,100,,0.347,RightResponse,correct,True,8.0
114,155,1028.7866666666666,3172,1028.774,1028.778,1028.782,0.2147394444619178,25.38561673775701,0.2108666896820068,25.35940361022949,0.2972263693809509,31.29315185546875,0.0405988693237304,1.153336763381958,0.129368782043457,11.80692195892334,L,False,True,3,R,0,,0.32,RightResponse,correct,True,6.0
115,156,1033.6956666666665,3183,1033.684,1033.689,1033.693,0.3171182983369395,34.727412879311935,0.2693012654781341,28.61620712280273,0.3861147165298462,35.49461364746094,-0.1674540042877197,-19.67500686645508,-0.1217310428619384,-8.023221969604492,L,False,True,3,R,0,,0.312,RightResponse,correct,True,5.0
116,157,1037.0636666666664,3190,1036.952,1036.957,1036.963,0.4512627047599321,46.94022400191374,0.4496551156044006,46.74378204345703,0.2540236711502075,24.34007835388184,-0.0380566120147705,-4.289926528930664,-0.1141016483306884,-7.883962631225586,L,False,True,3,R,100,,0.308,LeftResponse,incorrect,True,7.0
117,158,1041.4106666666667,3198,1041.197,1041.202,1041.207,0.3204266723326714,35.02375531820367,0.3124498724937439,33.62351608276367,0.1397038102149963,14.478567123413086,0.0710515975952148,9.804213523864746,-0.0329716205596923,-3.804483652114868,L,False,True,3,R,200,,0.398,RightResponse,correct,True,5.0
118,159,1044.5036666666665,3205,1044.291,1044.298,1044.304,0.6116117402006058,57.00045662657016,0.6071699857711792,56.514556884765625,0.7468655705451965,74.48155975341797,-0.0735766887664794,-7.426770210266113,0.0304193496704101,6.568055629730225,L,False,True,3,R,200,,0.368,RightResponse,correct,True,4.0
119,161,1087.4286666666665,3334,1087.42,1087.423,1087.427,0.2221231130802789,27.04932362486604,0.2057486772537231,25.90911674499512,0.1244860887527465,13.464799880981444,0.083702802658081,7.770687103271484,0.0431137084960937,4.472738265991211,L,False,True,4,R,0,,0.394,RightResponse,correct,True,4.0
120,166,1111.2016666666666,11151,1110.788,1110.795,1110.8,0.3563934567597469,34.63632951982044,-0.3556610643863678,-34.572662353515625,-0.2184373140335083,-20.365678787231445,-0.0228364467620849,-2.099128484725952,-0.1216573715209961,-13.91640567779541,L,False,True,4,R,400,,0.277,RightResponse,correct,True,13.0
121,167,1115.3026666666665,11171,1115.09,1115.093,1115.098,0.2944737584521068,31.402006435331003,-0.2565285563468933,-27.454002380371094,-0.1778210401535034,-20.29939079284668,0.1445956230163574,15.24348258972168,0.0836491584777832,7.143445014953613,L,False,True,4,L,200,,0.35,LeftResponse,correct,True,3.0
122,169,1124.7276666666667,3416,1124.619,1124.624,1124.63,0.3772453736865094,41.40867419107428,0.3734654188156128,41.08810043334961,0.4267871975898742,43.94887924194336,-0.053269624710083,-5.14259672164917,-0.0050704479217529,-3.8718693256378174,L,False,True,4,L,100,,0.228,RightResponse,incorrect,True,10.0
123,170,1127.9546666666665,11210,1127.745,1127.748,1127.752,0.2657096028564685,34.117073132837874,-0.2083116769790649,-26.28143882751465,-0.1752889156341552,-18.96075820922852,-0.1649479866027832,-21.75455474853516,-0.0354907512664794,-6.153132438659668,L,False,True,4,R,200,,0.392,LeftResponse,incorrect,True,2.0
124,171,1131.1316666666667,6978,1131.121,1131.124,1131.132,0.4403785787734209,40.72179472562506,-0.1448006629943847,-25.93429183959961,-0.1041648387908935,-12.07943630218506,0.4158918857574463,31.39549446105957,0.4054982662200928,29.048694610595703,L,False,True,4,R,0,,0.355,RightResponse,correct,True,3.0
125,174,1148.0926666666667,3472,1147.982,1147.987,1147.992,0.3709705442874076,37.04238019725131,0.2820177972316742,31.458532333374023,0.4623805582523346,46.90821075439453,-0.2410085201263427,-19.557573318481445,-0.2054004669189453,-23.537582397460938,L,False,True,4,R,100,,0.248,RightResponse,correct,True,13.0
126,175,1151.9606666666666,3481,1151.949,1151.953,1151.956,0.2191971087441387,24.63749798429496,0.2184765338897705,24.595966339111328,0.3505819737911224,39.79288482666016,0.0177588462829589,1.4299464225769043,0.0912947654724121,9.0372314453125,L,False,True,4,R,0,,0.239,LeftResponse,incorrect,True,2.0
127,178,1163.3146666666667,11314,1163.245,1163.248,1163.25,0.1271141783390276,16.963057718450376,-0.1270128488540649,-16.81178092956543,-0.1168428659439086,-14.270580291748049,-0.0050745010375976,-2.2603869438171387,-0.0355026721954345,-2.9508798122406006,L,False,True,4,L,50,,0.348,LeftResponse,correct,True,10.0
128,179,1166.2246666666665,11320,1166.164,1166.171,1166.177,0.6832151767106026,67.81883957900334,-0.675632119178772,-66.84651947021484,-0.6248258352279663,-57.448333740234375,-0.101509690284729,-11.4428071975708,-0.0456328392028808,-10.50952434539795,L,False,True,4,R,50,,0.201,RightResponse,correct,True,9.0
129,182,1180.5546666666667,3553,1180.134,1180.136,1180.139,0.1397895361641129,19.33397149687573,0.1270256638526916,17.113759994506836,0.1930504441261291,25.932283401489254,0.0583574771881103,8.995647430419922,0.0456445217132568,6.639186859130859,L,False,True,4,L,400,,0.352,RightResponse,incorrect,True,11.0
130,183,1183.9686666666666,11366,1183.91,1183.915,1183.921,0.4317791862946126,41.51564332800975,-0.3811007589101791,-38.6875114440918,-0.2514315843582153,-30.49982643127441,0.2029666900634765,15.060713768005373,0.1572198867797851,7.975521564483643,L,False,True,4,R,50,,0.3,LeftResponse,incorrect,True,8.0
131,184,1187.3866666666665,11373,1187.376,1187.383,1187.387,0.3976235450098857,38.924208111333805,-0.3200947642326355,-29.83823013305664,-0.3327392935752868,-29.2093563079834,0.2358894348144531,24.995479583740234,0.2864744663238525,33.25596237182617,L,False,True,4,L,0,,0.344,RightResponse,incorrect,True,5.0
132,188,1204.2156666666665,3604,1203.805,1203.808,1203.812,0.2002947308892038,24.09875866263772,0.1930779814720153,23.28017807006836,0.3149978518486023,35.17142868041992,-0.0532810688018798,-6.227638244628906,-0.1673743724822998,-19.96505546569824,L,False,True,4,R,400,,0.363,RightResponse,correct,True,14.0
133,189,1209.2906666666665,3618,1208.878,1208.885,1208.891,0.3353132634227967,31.019107113004324,0.3277027010917663,30.64591789245605,0.218446671962738,25.60904884338379,0.0710346698760986,-4.797157764434815,0.0202908515930175,2.766911506652832,L,False,True,4,L,400,,0.325,RightResponse,incorrect,True,13.0
134,190,1212.4006666666667,15383,1212.336,1212.342,1212.345,0.4257908703203633,43.793871080194485,0.2896198630332947,33.9737548828125,0.4089815616607666,49.09645462036133,-0.3121188879013061,-27.634889602661133,-0.1471164226531982,-17.040359497070312,L,False,True,4,L,50,,0.363,LeftResponse,correct,True,11.0
135,191,1216.8306666666665,11462,1216.72,1216.723,1216.727,0.2107429606024588,25.29724480436408,-0.2032192945480346,-24.66349983215332,-0.1320964694023132,-16.16568374633789,0.0558078289031982,5.626932621002197,0.202838659286499,21.251657485961918,L,False,True,4,L,100,,0.354,LeftResponse,correct,True,15.0
136,192,1220.0776666666666,11470,1220.064,1220.071,1220.077,0.5334208108902518,53.278042112999564,-0.5334147810935974,-53.272274017333984,-0.4013400077819824,-39.41850662231445,-0.0025362968444824,0.7839594483375549,0.0101423263549804,-1.0833966732025146,L,False,True,4,L,0,,0.293,LeftResponse,correct,True,8.0
137,195,1232.9676666666667,11507,1232.755,1232.76,1232.764,0.2730909566114924,28.881856118085757,-0.2692461013793945,-28.21778678894043,-0.2337062954902649,-25.633663177490234,-0.0456640720367431,-6.157769203186035,-0.1496567726135254,-17.709630966186523,L,False,True,4,R,200,,0.344,RightResponse,correct,True,5.0
138,196,1235.7406666666666,11515,1235.724,1235.731,1235.736,0.5544725080248928,42.98775281686853,-0.3607062697410583,-31.636302947998047,-0.2895733118057251,-23.230308532714844,0.4211065769195556,29.10483169555664,0.5910491943359375,53.434043884277344,L,False,True,4,R,0,,0.266,RightResponse,correct,True,7.0
139,198,1243.7136666666665,7165,1243.307,1243.31,1243.316,0.4026658145550148,46.61666324279402,0.2032442092895507,25.91366958618164,0.1778361797332763,29.95526123046875,0.3476083278656006,38.75041961669922,0.235842227935791,25.38204574584961,L,False,True,4,R,400,,0.351,RightResponse,correct,True,15.0
140,199,1248.0346666666665,3700,1247.823,1247.827,1247.831,0.2441416911232541,28.19655969707816,0.238808661699295,27.714723587036133,0.3404185175895691,36.09743881225586,-0.0507502555847168,-5.190382957458496,0.083709716796875,8.924527168273926,L,False,True,4,L,200,,0.271,RightResponse,incorrect,True,4.0
141,209,1322.7426666666665,3922,1322.734,1322.74,1322.746,0.4603544487449962,45.44492232080104,0.4522040486335754,44.897369384765625,0.5716537870466709,53.16965103149414,-0.0862421989440918,-7.033291339874268,-0.0380327701568603,-4.172185897827148,L,False,True,5,R,0,,0.216,LeftResponse,incorrect,True,9.0
142,211,1331.1276666666665,3938,1331.117,1331.124,1331.126,0.2876021386625728,32.31005952867737,0.274373710155487,21.71018409729004,0.0787608325481414,1.062474250793457,0.0862209796905517,23.92922592163086,0.0786082744598388,15.030214309692385,L,False,True,5,R,0,,0.206,RightResponse,correct,True,12.0
143,213,1338.1476666666665,11851,1338.138,1338.143,1338.149,0.6017817413204904,61.487850012024055,-0.4598405957221985,-52.1970329284668,-0.3683710694313049,-36.09835052490234,-0.3881853818893432,-32.4996223449707,-0.3068206310272217,-28.607357025146484,L,False,True,5,R,0,,0.285,RightResponse,correct,True,11.0
144,214,1341.6066666666666,3967,1341.394,1341.4,1341.403,0.2692889764673051,26.79986884896264,0.2439065426588058,23.744083404541016,0.2337452918291092,25.060720443725582,0.1141321659088134,12.427850723266602,0.0633797645568847,9.034445762634276,L,False,True,5,L,200,,0.377,RightResponse,incorrect,True,7.0
145,217,1354.1306666666665,3999,1354.02,1354.023,1354.027,0.2011276739126751,23.28739000998836,0.1600526571273803,20.34719467163086,0.1880007982254028,21.456037521362305,-0.1218010187149047,-11.326703071594238,-0.0380339622497558,-3.2502121925354004,L,False,True,5,L,100,,0.311,LeftResponse,correct,True,13.0
146,218,1358.6896666666667,4003,1358.28,1358.283,1358.287,0.2201882930958773,25.737436846567253,0.2108605504035949,25.104604721069336,0.289645604789257,35.9400634765625,0.0634090900421142,5.672255039215088,0.035491943359375,5.02417516708374,L,False,True,5,L,400,,0.338,LeftResponse,correct,True,14.0
147,219,1361.7956666666666,4011,1361.385,1361.392,1361.398,0.6126215781264058,61.61632133408473,0.6122852265834808,61.46027374267578,0.5843318402767181,61.13654708862305,0.0202977657318115,4.382442951202393,0.0836994647979736,4.888372421264648,L,False,True,5,R,400,,0.214,RightResponse,correct,True,13.0
148,222,1373.9606666666666,4044,1373.897,1373.902,1373.908,0.3094976347875588,31.26826089730181,0.3048775494098663,31.157520294189453,0.3988690972328186,35.93742752075195,0.0532772541046142,-2.629271507263184,-0.0988967418670654,-13.09395694732666,L,False,True,5,R,50,,0.361,LeftResponse,incorrect,True,10.0
149,223,1379.4646666666665,11968,1379.254,1379.258,1379.262,0.2711292887836546,30.0929702908845,-0.2616637349128723,-29.19184112548828,-0.1549714803695678,-16.90603256225586,0.0710153579711914,7.309122562408447,0.0811307430267334,8.159252166748047,L,False,True,5,L,200,,0.298,RightResponse,incorrect,True,10.0
150,225,1387.3836666666666,4070,1387.372,1387.376,1387.382,0.3314729995869527,34.59206427966187,0.3226224780082702,33.97110748291016,0.1549627184867859,14.43395709991455,0.0760860443115234,6.5249342918396,0.0557765960693359,8.781719207763672,L,False,True,5,L,0,,0.322,LeftResponse,correct,True,10.0
151,226,1389.9316666666666,7453,1389.87,1389.877,1389.884,0.7668653018280337,72.87416638938123,-0.0381096899509429,-11.940762519836426,-0.2743699550628662,-25.519607543945312,0.7659177780151367,71.88923645019531,0.8667972087860107,76.3390884399414,L,False,True,5,R,50,,0.252,LeftResponse,incorrect,True,13.0
152,228,1401.2476666666666,12027,1401.138,1401.14,1401.144,0.1702388367483742,24.11777992498248,-0.1702199280261993,-23.974010467529297,-0.2921382188796997,-36.30390167236328,0.0025372505187988,2.6294734477996826,-0.0355112552642822,-4.634917259216309,L,False,True,5,L,100,,0.327,RightResponse,incorrect,True,12.0
153,235,1432.0026666666665,7532,1431.994,1431.998,1432.005,0.5811853052924814,56.24928654808769,-0.2209988236427307,-33.39130401611328,-0.3810913264751434,-37.878047943115234,0.5375275611877441,45.26591491699219,0.4257843494415283,48.31519317626953,L,False,True,5,L,0,,0.207,LeftResponse,correct,True,12.0
