,trialIndex,targetOnsetTime,Unnamed: 0,startTime,peakVelocityTime,stopTime,amplitude,peakVelocity,saccade_vec_left_x,peak_velocity_vec_left_x,saccade_vec_right_x,peak_velocity_vec_right_x,saccade_vec_left_y,peak_velocity_vec_left_y,saccade_vec_right_y,peak_velocity_vec_right_y,whichEye,otherEyeMissingData,isBinocular,blockId,arrowDirection,latency,blankDuration,fixationDurationInSec,response,result,isSaccade,blankDurationInFrameCount
0,0,199.30466666666666,6149,199.191,199.196,199.202,0.3761135014194045,41.71767243481162,-0.3760362565517425,-41.71511459350586,-0.2464358806610107,-30.001916885375977,-0.0076223164796829,-0.4619608521461487,-0.2565740346908569,-19.791061401367188,L,False,True,0,L,100,,0.317,RightResponse,incorrect,True,4.0
1,1,203.88366666666667,6154,203.87,203.876,203.881,0.4572775737680922,48.699513299794994,-0.3988963440060615,-41.9222297668457,-0.4039222002029419,-44.96490478515625,-0.2235721051692962,-24.78243827819824,-0.0584360659122467,-5.589502334594727,L,False,True,0,L,0,,0.262,RightResponse,incorrect,True,4.0
2,2,207.12266666666667,9062,207.065,207.068,207.074,0.3227037386708516,35.90989240905809,-0.2083411067724228,-27.001163482666016,-0.1956151723861694,-27.944807052612305,-0.2464379966259002,-23.67398452758789,-0.2413714379072189,-25.846290588378903,L,False,True,0,L,50,,0.311,RightResponse,incorrect,True,4.0
3,3,213.25966666666667,9075,213.142,213.144,213.148,0.1981818005442619,25.903550156604187,0.0,4.804347038269043,0.127035915851593,21.87322425842285,-0.1981818005442619,-25.45411872863769,-0.2311820983886718,-27.852540969848636,L,False,True,0,R,100,,0.256,RightResponse,correct,True,7.0
4,4,218.90166666666667,6177,218.688,218.694,218.699,0.5385579634745461,59.19347178478719,-0.5056142657995224,-56.10502243041992,-0.3150088787078857,-35.334716796875,-0.185469388961792,-18.870441436767575,-0.3277058005332947,-32.12374496459961,L,False,True,0,L,200,,0.398,RightResponse,incorrect,True,4.0
5,5,221.86566666666667,3572,221.852,221.858,221.865,0.7391370749469506,74.57082457206702,-0.248988464474678,-25.43010139465332,-0.3836326599121094,-33.28219223022461,0.6959370374679565,70.10076904296875,1.008664071559906,98.39562225341795,L,False,True,0,L,0,,0.21,LeftResponse,correct,True,7.0
6,6,226.11666666666667,6195,226.002,226.008,226.014,0.3976779117646776,46.27982776610892,-0.3912635892629623,-46.03221130371094,-0.297223687171936,-38.84405899047852,-0.0711373686790466,-4.781002044677734,-0.1194048523902893,-10.046659469604492,L,False,True,0,R,100,,0.304,RightResponse,correct,True,6.0
7,7,229.57666666666668,6200,229.164,229.169,229.173,0.4677807861526534,51.40993678867274,-0.3480840446427464,-38.48092651367188,-0.350563645362854,-39.21275329589844,0.3125001788139343,34.0910530090332,0.3353623747825622,31.988676071166992,L,False,True,0,R,400,,0.267,RightResponse,correct,True,4.0
8,8,232.91566666666668,716,232.703,232.71,232.716,0.5045702098532566,48.803653013181936,0.4979771077632904,47.88064956665039,0.3353611528873443,26.07585334777832,-0.0813012719154357,-9.44668960571289,-0.2057869136333465,-18.70800399780273,L,False,True,0,R,200,,0.264,RightResponse,correct,True,7.0
9,9,237.73666666666668,6211,237.673,237.678,237.683,0.4192789603340903,47.2490129909869,-0.3760242015123367,-43.51531982421875,-0.1651116609573364,-21.429874420166016,-0.1854741126298904,-18.40886116027832,-0.1575165390968322,-12.448837280273438,L,False,True,0,R,50,,0.298,LeftResponse,incorrect,True,7.0
10,10,242.34066666666666,728,242.329,242.333,242.338,0.2272835937805971,24.595437814270312,0.2261304557323455,24.045137405395508,0.1575040221214294,15.727375984191896,0.022865891456604,5.173676490783691,0.0381088554859161,5.658590316772461,L,False,True,0,R,0,,0.269,RightResponse,correct,True,6.0
11,11,245.99266666666668,738,245.981,245.987,245.992,0.5840459567254676,60.65713905119586,0.5818313732743263,60.51607894897461,0.67068812251091,73.11921691894531,-0.0508127212524414,-4.134332656860352,-0.0330292582511901,0.5543248057365417,L,False,True,0,L,0,,0.391,RightResponse,incorrect,True,5.0
12,12,251.1136666666667,6232,251.054,251.06,251.063,0.4161318910744503,50.54626635461872,-0.3150562383234501,-29.24211883544922,-0.3530980944633484,-34.96278381347656,-0.2718553245067596,-41.22891616821289,-0.2413557171821594,-37.69270706176758,L,False,True,0,R,50,,0.389,RightResponse,correct,True,10.0
13,13,254.26466666666667,3610,254.14,254.146,254.153,0.5970091353753795,60.97459877102856,0.3582498207688331,44.37117385864258,0.378514289855957,45.79676818847656,0.4775740504264831,41.82225036621094,0.2972632795572281,29.079822540283203,L,False,True,0,R,100,,0.214,RightResponse,correct,True,5.0
14,14,259.02366666666666,6240,258.614,258.619,258.624,0.3950919438354728,44.205280546303584,-0.3811131799593568,-43.23894500732422,-0.1295386552810669,-19.62706184387207,-0.1041651964187622,-9.192413330078123,-0.0330263376235961,-6.582205295562744,L,False,True,0,L,400,,0.222,RightResponse,incorrect,True,3.0
15,15,263.6286666666667,6247,263.567,263.573,263.577,0.4331568660883146,41.12760191636035,-0.2972637116909027,-27.855379104614254,-0.3505259156227112,-31.588340759277344,-0.3150542117655277,-30.258180618286133,-0.048263132572174,-4.410645008087158,L,False,True,0,R,50,,0.252,RightResponse,correct,True,9.0
16,16,267.2676666666667,764,266.855,266.861,266.866,0.4382009624110968,52.68355045282406,0.4268515706062317,51.20835113525391,0.3759605288505554,46.83345413208008,-0.0990849137306213,-12.379873275756836,-0.144817441701889,-13.719531059265137,L,False,True,0,L,400,,0.344,RightResponse,incorrect,True,6.0
17,17,269.9986666666667,3632,269.976,269.982,269.988,0.618051215739638,64.8729713853063,0.2744045630097389,30.073694229125977,0.2286474406719207,28.61587905883789,0.5537954866886139,57.48108673095703,0.7088632881641388,66.12841796875,L,False,True,0,R,0,,0.204,RightResponse,correct,True,8.0
18,18,274.51166666666666,6268,274.452,274.456,274.461,0.3330971658191535,36.17781927556857,-0.3099734038114548,-33.399539947509766,-0.3353437483310699,-39.56240081787109,0.1219434738159179,13.90342903137207,0.1194061934947967,9.12295913696289,L,False,True,0,L,50,,0.215,RightResponse,incorrect,True,8.0
19,19,280.9066666666667,6276,280.492,280.497,280.501,0.3035562610230017,32.15700650387186,-0.2667825296521187,-29.265254974365234,-0.2896209359169006,-31.479440689086918,-0.1448222547769546,-13.327337265014648,-0.1016158461570739,-6.51268196105957,L,False,True,0,L,400,,0.385,RightResponse,incorrect,True,9.0
20,20,285.83166666666665,6286,285.422,285.427,285.433,0.4359256073466638,51.96741761949188,-0.4344723150134086,-51.854888916015625,-0.287044882774353,-38.19490814208984,0.0355660319328308,3.418038845062256,0.1473520994186401,4.06491756439209,L,False,True,0,R,400,,0.316,RightResponse,correct,True,12.0
21,21,290.5026666666667,6294,290.29,290.296,290.302,0.637802910009363,64.78044680084429,-0.5360963083803654,-56.82021713256836,-0.467423677444458,-55.656959533691406,-0.3455333560705185,-31.11220359802246,-0.1117796301841735,-4.642068862915039,L,False,True,0,L,200,,0.304,LeftResponse,correct,True,6.0
22,22,295.8486666666667,800,295.788,295.794,295.8,0.4886936332237577,54.55870115772795,0.4725699350237846,53.93198013305664,0.5691029131412506,55.27133560180664,-0.1244954764842987,-8.245810508728027,-0.2616817653179168,-26.930330276489254,L,False,True,0,L,50,,0.336,LeftResponse,correct,True,11.0
23,24,303.8636666666667,6311,303.653,303.659,303.664,0.6795799771495535,68.11639003592042,-0.6021483968943357,-62.10900115966797,-0.5436291396617889,-58.95786666870117,-0.3150337338447571,-27.96988677978516,0.0355693697929382,0.3464506566524505,L,False,True,0,R,200,,0.395,RightResponse,correct,True,5.0
24,25,307.6766666666667,6316,307.665,307.67,307.673,0.3006729103503591,34.80609507306962,-0.2261268049478531,-27.278409957885746,-0.0279468894004821,-3.972614288330078,-0.1981687843799591,-21.61833953857422,-0.4293756932020187,-49.45112609863281,L,False,True,0,R,0,,0.33,RightResponse,correct,True,7.0
25,27,319.14666666666665,6340,318.937,318.942,318.946,0.5305853774100738,57.32079164910108,-0.3379244953393936,-38.943321228027344,-0.0736744403839111,-8.383615493774414,-0.4090573042631149,-42.06056213378906,-0.3582182228565216,-35.54463577270508,L,False,True,0,L,200,,0.225,RightResponse,incorrect,True,4.0
26,29,326.28366666666665,9231,326.07,326.074,326.079,0.3830898025147889,43.01300258602452,0.1422827839851379,17.970111846923828,0.2769145965576172,32.01059341430664,-0.3556872308254242,-39.079322814941406,-0.3480622470378876,-36.83855819702149,L,False,True,0,R,200,,0.2,LeftResponse,incorrect,True,7.0
27,30,330.62966666666665,850,330.574,330.579,330.584,0.341000639069847,34.16314285879279,0.3379203453660011,32.521636962890625,0.2362763881683349,19.33191680908203,0.0457304716110229,10.462478637695312,0.0228670462965965,1.0856086015701294,L,False,True,0,L,50,,0.302,RightResponse,incorrect,True,10.0
28,31,334.76866666666666,6362,334.357,334.362,334.366,0.4206364513139939,47.40740518059733,-0.3074346520006656,-34.64706802368164,-0.1701783537864685,-19.32685661315918,-0.2870870232582092,-32.35803985595703,-0.2794622182846069,-29.72459983825684,L,False,True,0,L,400,,0.296,RightResponse,incorrect,True,10.0
29,32,337.4286666666667,9250,337.218,337.223,337.229,0.5884687734930123,61.1286063608069,-0.2312117293477058,-27.625267028808597,-0.0533497929573059,-2.1709446907043457,-0.5411438196897507,-54.53027725219727,-0.5791917741298676,-59.95218276977539,L,False,True,0,L,200,,0.28,RightResponse,incorrect,True,10.0
30,33,341.4256666666667,6374,341.311,341.316,341.321,0.2744148201979921,30.83572680389632,-0.2744030598551035,-30.835718154907227,-0.2184473872184753,-24.038463592529297,-0.0025405287742614,0.0230953600257635,-0.0838442146778106,-9.215897560119627,L,False,True,0,R,100,,0.396,RightResponse,correct,True,7.0
31,34,344.8856666666667,6381,344.874,344.881,344.887,0.719486674282964,76.67571557311909,-0.6682045608758926,-71.50917053222656,-0.3480362892150879,-38.31391525268555,-0.2667653262615204,-27.66954803466797,-0.0533558428287506,-4.042097568511963,L,False,True,0,L,0,,0.229,RightResponse,incorrect,True,6.0
32,35,348.17066666666665,3768,348.057,348.062,348.07,0.4983694667134623,44.555211799503226,-0.1981809176504612,-22.820837020874023,-0.0711298584938049,-13.209670066833496,0.4572706520557403,38.26716995239258,0.4649567119777202,46.08022689819336,L,False,True,0,L,100,,0.253,RightResponse,incorrect,True,6.0
33,36,352.4796666666667,6394,352.066,352.076,352.081,0.8821834417352025,85.21279910868614,-0.8384270519018173,-78.48345184326172,-0.5716007351875305,-47.89683151245117,-0.2743860483169555,-33.18989181518555,-0.0406491756439209,-12.494932174682615,L,False,True,0,R,400,,0.226,RightResponse,correct,True,13.0
34,37,356.28066666666666,6402,356.269,356.275,356.279,0.385737077207471,40.80492436897899,-0.3353826962411403,-35.01649475097656,-0.2057762742042541,-22.03243827819824,-0.1905558705329895,-20.94962882995605,-0.4166470766067505,-40.02484130859375,L,False,True,0,R,0,,0.272,RightResponse,correct,True,9.0
35,38,359.83566666666667,902,359.719,359.725,359.729,0.3541791237621643,35.659482929460935,0.2845567017793655,28.109113693237305,0.4268436729907989,40.67520523071289,-0.2108799070119857,-21.94257164001465,-0.3683812916278839,-39.5405387878418,L,False,True,0,L,100,,0.25,RightResponse,incorrect,True,9.0
36,39,364.3906666666667,909,364.181,364.186,364.189,0.3171089097287449,38.70466008818347,0.2515376359224319,30.743488311767575,0.3683896362781524,45.36166000366211,-0.1930981054902076,-23.51358413696289,-0.1600597500801086,-23.18887710571289,L,False,True,0,R,200,,0.392,RightResponse,correct,True,13.0
37,40,396.98966666666666,1057,396.878,396.884,396.889,0.5106888221850973,50.36284683713624,0.3760325848124921,40.32893371582031,0.5563944578170776,63.28487396240234,-0.3455467671155929,-30.16609764099121,-0.4166793338954448,-37.04844665527344,L,False,True,1,R,100,,0.303,LeftResponse,incorrect,True,12.0
38,41,401.0826666666667,6558,400.969,400.976,400.981,0.4651675784536614,47.15750851647664,-0.4623839259147644,-46.83872604370117,-0.3632246851921081,-39.32435607910156,0.0508131980895996,5.473970413208008,0.0787628442049026,9.03115463256836,L,False,True,1,L,100,,0.238,RightResponse,incorrect,True,15.0
39,42,405.1666666666667,6571,405.106,405.112,405.118,0.4512960859388287,46.65331780836196,-0.4496839344501495,-46.40047073364258,-0.4597237706184387,-47.19746398925781,-0.0381118915975093,-4.8506059646606445,-0.0533467531204223,-10.60018253326416,L,False,True,1,L,50,,0.242,LeftResponse,correct,True,13.0
40,43,409.0676666666667,6578,409.007,409.012,409.018,0.5344138794941493,62.15937010374551,-0.5335436686873436,-61.71570587158203,-0.4317423105239868,-46.13035202026367,-0.0304852128028869,-7.413429737091064,0.0711396932601928,9.30820369720459,L,False,True,1,L,50,,0.233,LeftResponse,correct,True,12.0
41,44,412.1156666666667,6585,412.005,412.01,412.015,0.4338340323729917,50.01151489221642,-0.4217634918168187,-48.94401550292969,-0.2489546537399292,-26.419628143310547,0.1016244292259216,10.277887344360352,0.1041717156767845,12.034034729003906,L,False,True,1,L,100,,0.373,LeftResponse,correct,True,18.0
42,45,415.4916666666667,6589,415.08,415.085,415.09,0.3100997357330297,35.45789785485575,-0.3074237108230591,-35.36170959472656,-0.2870383262634277,-29.049819946289062,-0.0406510531902313,-2.6099836826324463,-0.1067090034484863,-13.32709503173828,L,False,True,1,R,400,,0.284,LeftResponse,incorrect,True,12.0
43,46,419.2936666666667,6592,419.082,419.087,419.093,0.5122878307130754,57.33815392525007,-0.4039777852594852,-46.77284240722656,-0.4673361182212829,-51.53583526611328,-0.3150250315666199,-33.16572189331055,-0.3099356889724731,-28.52200126647949,L,False,True,1,L,200,,0.287,RightResponse,incorrect,True,12.0
44,47,422.7576666666667,6596,422.644,422.652,422.657,0.6299179400960123,65.26626700758034,-0.6071929335594177,-60.603153228759766,-0.6807286739349365,-68.5101547241211,-0.1676703691482544,-24.22691535949707,-0.147350788116455,-16.90614891052246,L,False,True,1,L,100,,0.317,LeftResponse,correct,True,17.0
45,48,426.08366666666666,6599,426.072,426.077,426.082,0.499183703591849,55.951121720258975,-0.3912804275751114,-45.110469818115234,-0.3429462313652038,-42.769962310791016,-0.3099741875194013,-33.099449157714844,-0.2083065509796142,-31.869110107421875,L,False,True,1,L,0,,0.283,RightResponse,incorrect,True,8.0
46,49,429.9436666666667,6605,429.531,429.535,429.54,0.3111922832469617,34.80509448024439,-0.3023449778556824,-34.3458366394043,-0.246401846408844,-26.23357963562012,-0.0736759901046752,-5.635433197021484,-0.083837866783142,-11.663375854492188,L,False,True,1,L,400,,0.25,LeftResponse,correct,True,15.0
47,50,433.0946666666667,9440,433.033,433.036,433.042,0.4080211568181321,46.13380085837552,-0.2210376858711242,-28.016530990600582,-0.1295521855354309,-16.9503173828125,-0.3429629802703857,-36.652442932128906,-0.3887221068143844,-37.83261489868164,L,False,True,1,R,50,,0.366,LeftResponse,incorrect,True,11.0
48,51,435.8006666666667,6621,435.787,435.793,435.796,0.3667853130496165,36.88807221885632,-0.2489972412586212,-24.0219841003418,-0.3073834180831909,-35.056846618652344,-0.2693173587322235,-27.99418067932129,-0.3099573850631714,-39.70309066772461,L,False,True,1,R,0,,0.397,LeftResponse,incorrect,True,11.0
49,52,439.67266666666666,6626,439.264,439.269,439.275,0.5251781032554219,57.58418242718057,-0.5233995914459229,-57.583274841308594,-0.4800582528114319,-55.464141845703125,0.0431845784187316,-0.3233022689819336,-0.0203238725662231,-2.3095242977142334,L,False,True,1,R,400,,0.369,LeftResponse,incorrect,True,14.0
50,53,443.5536666666667,6631,443.139,443.144,443.148,0.2836615933404653,32.02368126215697,-0.2820188105106354,-31.943605422973636,-0.2133553624153137,-22.72086334228516,0.0304842591285705,2.263235330581665,-0.0635185092687606,-7.044777870178223,L,False,True,1,R,400,,0.324,LeftResponse,incorrect,True,17.0
51,54,447.6206666666667,6641,447.61,447.615,447.619,0.4942185664338587,53.42269975192853,-0.3404651135206222,-35.432411193847656,-0.1244763731956482,-17.55129623413086,-0.3582394421100616,-39.98160934448242,-0.2057885825634002,-22.426513671875,L,False,True,1,R,0,,0.337,LeftResponse,incorrect,True,14.0
52,55,450.61466666666666,6648,450.552,450.558,450.563,0.4582391291545041,50.01083427506407,-0.439545389264822,-48.019752502441406,-0.297185480594635,-30.018407821655277,-0.1295490264892578,-13.97093105316162,-0.0508136749267578,-10.670845985412598,L,False,True,1,R,50,,0.244,LeftResponse,incorrect,True,14.0
53,56,454.1906666666667,6654,454.079,454.083,454.088,0.376519427345048,40.18498160144563,-0.3658725470304489,-39.35906219482422,-0.3708392977714538,-42.16409683227539,0.0889053344726562,8.105366706848145,0.2159600853919983,21.180355072021484,L,False,True,1,R,100,,0.283,LeftResponse,incorrect,True,16.0
54,57,457.50866666666667,6659,457.397,457.403,457.408,0.4938473990010735,52.70977468797061,-0.4929054453969002,-52.70891952514648,-0.5207072496414185,-55.32530212402344,-0.0304872989654541,0.3002501428127289,0.066058874130249,4.180647850036621,L,False,True,1,L,100,,0.29,RightResponse,incorrect,True,19.0
55,58,461.6766666666667,6669,461.464,461.47,461.475,0.5305208486778108,61.646836588723794,-0.5081481039524078,-58.898887634277344,-0.2616392970085144,-31.728981018066406,-0.1524397432804107,-18.20037078857422,-0.0177839994430542,-2.3789074420928955,L,False,True,1,R,200,,0.266,LeftResponse,incorrect,True,15.0
56,59,464.4786666666667,6677,464.468,464.475,464.48,0.5908610738213667,70.32638016739902,-0.5538699999451637,-65.3874282836914,-0.4673559069633484,-50.56658172607422,-0.2057785987854004,-25.889842987060547,-0.2921493649482727,-26.328413009643555,L,False,True,1,R,0,,0.358,LeftResponse,incorrect,True,17.0
57,60,468.25466666666665,6685,468.042,468.048,468.054,0.5479670913941465,59.5473798407856,-0.5462623164057732,-59.546085357666016,-0.4927992224693298,-55.09861373901367,-0.043190449476242,-0.3926378488540649,0.0482734143733978,6.767515659332275,L,False,True,1,R,200,,0.319,LeftResponse,incorrect,True,18.0
58,61,471.3396666666667,6688,471.326,471.332,471.337,0.54190091782876,58.00490645459485,-0.4497141353785991,-49.35994338989258,-0.2946407198905945,-36.506649017333984,-0.3023471534252167,-30.465803146362305,-0.2007034122943878,-21.22509002685547,L,False,True,1,L,0,,0.322,LeftResponse,correct,True,20.0
59,62,475.13666666666666,1193,474.925,474.93,474.933,0.2416952663000678,28.12905237907192,0.236293364316225,27.232637405395508,0.4242713451385498,47.43947982788086,-0.0508138537406921,-7.044646739959717,-0.1752943992614746,-21.13237762451172,L,False,True,1,L,200,,0.326,LeftResponse,correct,True,21.0
60,63,479.17966666666666,6699,478.768,478.772,478.777,0.2797647247293613,32.79158362364014,-0.2718561142683029,-31.68963432312012,-0.3124344944953918,-32.4444580078125,-0.0660496354103088,-8.429414749145508,-0.1625987589359283,-12.933948516845703,L,False,True,1,L,400,,0.241,LeftResponse,correct,True,20.0
61,64,483.7886666666667,6706,483.678,483.684,483.69,0.5533709150208775,59.62647162262277,-0.4929022470023483,-53.655609130859375,-0.3149756789207458,-36.20772171020508,-0.2515288144350052,-26.007532119750977,-0.2184962332248687,-17.207033157348633,L,False,True,1,R,100,,0.303,LeftResponse,incorrect,True,22.0
62,65,487.21066666666667,1212,486.8,486.806,486.812,0.5809715360594438,59.7543455544996,0.5284710167907178,55.91919708251953,0.5639625191688538,62.76966857910156,0.2413427233695984,21.06241226196289,0.3582509309053421,30.766658782958984,L,False,True,1,L,400,,0.224,LeftResponse,correct,True,19.0
63,66,490.27866666666665,6721,490.064,490.07,490.075,0.3958316858366796,37.65242314228075,-0.3455439209938049,-34.438907623291016,-0.4089640974998474,-41.31177520751953,0.1930857896804809,15.220598220825195,0.1219449639320373,8.31446647644043,L,False,True,1,L,200,,0.283,LeftResponse,correct,True,20.0
64,67,493.5556666666667,9540,493.145,493.15,493.156,0.5123007215341027,51.50499699280832,-0.279468297958374,-29.79450035095215,-0.0177826881408691,-1.8937464952468872,-0.4293594062328338,-42.01252746582031,-0.2566086053848266,-30.76548385620117,L,False,True,1,R,400,,0.332,LeftResponse,incorrect,True,18.0
65,68,498.1016666666667,1233,498.091,498.097,498.103,0.7344918883370786,80.76822742528097,0.7012374326586723,77.95407104492188,0.6580466255545616,72.27201080322266,-0.2185049131512642,-21.13455390930176,-0.2692950367927551,-27.206262588500977,L,False,True,1,R,0,,0.274,LeftResponse,incorrect,True,19.0
66,69,502.33166666666665,6742,502.32,502.327,502.333,0.7032818288372084,74.01224617397604,-0.6859939992427826,-71.23238372802734,-0.5410129427909851,-54.47188186645508,-0.1549760103225708,-20.09378242492676,0.0812943577766418,9.561379432678224,L,False,True,1,L,0,,0.233,LeftResponse,correct,True,22.0
67,70,508.22266666666667,6753,508.212,508.22,508.225,0.7677250832024851,80.88207625524547,-0.7571415454149246,-77.81605529785156,-0.6578664183616638,-62.82936477661133,-0.1270373314619064,-22.058372497558597,-0.0838403105735778,-10.439657211303713,L,False,True,1,L,0,,0.282,LeftResponse,correct,True,21.0
68,71,511.6786666666667,6760,511.617,511.622,511.627,0.3921748067871797,44.40345242131303,-0.3836563564836979,-44.30183410644531,-0.231155514717102,-25.81739044189453,0.0812950134277343,3.00234603881836,0.0889271423220634,4.735087394714356,L,False,True,1,R,50,,0.385,LeftResponse,incorrect,True,17.0
69,72,514.7926666666667,6764,514.579,514.585,514.59,0.5158676794559492,51.573644428101815,-0.4598804712295532,-47.09688568115234,-0.4267995655536651,-47.229148864746094,0.2337293624877929,21.017234802246094,0.170228898525238,19.471214294433597,L,False,True,1,R,200,,0.242,LeftResponse,incorrect,True,19.0
70,73,518.3396666666666,6773,518.279,518.286,518.291,0.6976590275500677,69.41284223539908,-0.6198794841766357,-64.41242218017578,-0.4190765023231506,-45.11700439453125,-0.3201211392879486,-25.868562698364254,-0.2210405617952346,-24.113428115844727,L,False,True,1,L,50,,0.386,LeftResponse,correct,True,20.0
71,74,521.9166666666666,6781,521.854,521.86,521.864,0.4580357259900971,51.72076984260096,-0.4319265247322619,-47.81209945678711,-0.419099748134613,-48.46719741821289,-0.1524342596530914,-19.7241268157959,-0.0457250475883483,-8.313539505004883,L,False,True,1,L,50,,0.351,LeftResponse,correct,True,19.0
72,75,526.1216666666667,9594,525.7,525.703,525.708,0.3169604811323981,34.58515061224586,-0.1168762817978859,-15.59120273590088,-0.0126999616622924,-3.925431728363037,-0.2946249842643738,-30.8714599609375,-0.3632333874702453,-43.50470352172852,L,False,True,1,L,400,,0.329,LeftResponse,correct,True,21.0
73,76,529.6566666666666,6792,529.545,529.551,529.556,0.4806233423263643,54.05353008167013,-0.4293714016675949,-46.93269729614258,-0.2438674569129943,-28.220115661621094,-0.2159606367349624,-26.81615257263184,-0.3175684809684753,-33.60431289672852,L,False,True,1,R,100,,0.237,LeftResponse,incorrect,True,25.0
74,77,533.3656666666667,6802,533.155,533.161,533.167,0.6347814442459759,64.48554986875938,-0.5996221303939819,-62.59555435180664,-0.4826898276805877,-61.31673812866211,0.2083285450935363,15.49782943725586,0.2997995018959045,31.73566627502441,L,False,True,1,L,200,,0.284,LeftResponse,correct,True,22.0
75,78,537.3046666666667,6811,537.242,537.248,537.255,0.5677057300596251,56.811426846195765,-0.5538880825042725,-55.80475234985352,-0.5919037461280823,-60.27568054199219,0.1244901120662689,10.647433280944824,0.0914587378501892,5.265786170959473,L,False,True,1,R,50,,0.398,LeftResponse,incorrect,True,18.0
76,79,541.4556666666667,6819,541.243,541.25,541.256,0.6658071183564594,70.41879420620195,-0.6504264175891876,-69.56973266601562,-0.8025612831115723,-89.21240997314453,-0.1422834992408752,-10.902241706848145,0.0457288026809692,-5.104042530059815,L,False,True,1,R,200,,0.282,LeftResponse,incorrect,True,21.0
77,80,566.5316666666666,1402,566.467,566.472,566.478,0.3892766952409074,40.13601503302276,0.3074285835027694,33.09880065917969,0.3784986734390259,44.153751373291016,0.2387970089912414,22.70174217224121,0.3633206784725189,27.693866729736328,L,False,True,2,R,50,,0.254,LeftResponse,incorrect,True,21.0
78,81,571.7436666666666,6930,571.334,571.339,571.344,0.3889084981176454,43.4495191995028,-0.3709309101104736,-41.68925857543945,-0.3836396485567093,-38.61792755126953,-0.1168763441964984,-12.241994857788086,-0.1625950336456298,-18.08392333984375,L,False,True,2,R,400,,0.365,LeftResponse,incorrect,True,20.0
79,82,575.4246666666667,6940,575.41,575.417,575.421,0.5150416414160662,51.7144144349786,-0.4014314413070678,-42.42961502075195,-0.3022943139076233,-29.25897216796875,-0.32267737807706,-29.565324783325195,-0.3099673092365265,-29.58786392211914,L,False,True,2,L,0,,0.252,LeftResponse,correct,True,20.0
80,84,585.3496666666666,6963,584.941,584.946,584.952,0.4796212239964439,53.20210405123928,-0.454749047756195,-50.27879333496094,-0.3404160141944885,-36.62849807739258,-0.1524461284279823,-17.392723083496094,-0.1829027533531189,-17.38947868347168,L,False,True,2,L,400,,0.284,LeftResponse,correct,True,23.0
81,85,588.6476666666666,6973,588.433,588.439,588.443,0.462242483784385,51.56266845113203,-0.3861664831638336,-42.565826416015625,-0.4266493320465088,-44.0488510131836,-0.2540542483329773,-29.100845336914062,-0.1575216650962829,-18.66231346130371,L,False,True,2,L,200,,0.32,LeftResponse,correct,True,24.0
82,86,591.6786666666667,6979,591.664,591.671,591.677,0.6168018017429937,64.66652301372454,-0.6046286523342133,-63.58060836791992,-0.6375542879104614,-67.05668640136719,-0.121937096118927,-11.801077842712402,-0.0812920928001403,-9.168429374694824,L,False,True,2,L,0,,0.319,LeftResponse,correct,True,19.0
83,87,594.8966666666666,6986,594.837,594.842,594.848,0.548821571293587,56.45185492521155,-0.4953505992889404,-52.95344543457031,-0.4292629957199096,-46.09018707275391,-0.2362898662686348,-19.56385803222656,-0.1193944215774536,-10.48445987701416,L,False,True,2,R,50,,0.285,LeftResponse,incorrect,True,24.0
84,88,598.0816666666667,6994,598.021,598.026,598.03,0.5416966613576396,60.29676341544455,-0.3302704095840454,-37.96964645385742,-0.2006467580795288,-26.39093971252441,-0.4293678253889084,-46.840213775634766,-0.495394617319107,-51.54915237426758,L,False,True,2,L,50,,0.332,LeftResponse,correct,True,27.0
85,89,601.7326666666667,7006,601.672,601.677,601.68,0.2972514974174598,37.80919552714651,-0.2362533211708068,-29.329486846923828,-0.1143085956573486,-8.613507270812988,-0.1803962886333465,-23.860353469848636,-0.307386577129364,-37.990421295166016,L,False,True,2,L,50,,0.376,LeftResponse,correct,True,26.0
86,90,606.1006666666667,7015,605.889,605.896,605.902,0.58879850603279,67.05195606650146,-0.5868164002895355,-67.04119873046875,-0.576582670211792,-69.57337188720703,0.0482720732688903,-1.2010350227355957,0.0177851617336273,3.5570318698883057,L,False,True,2,R,200,,0.285,LeftResponse,incorrect,True,23.0
87,91,610.0266666666666,7025,609.814,609.82,609.826,0.5949659066840802,61.94149823028299,-0.5563424229621887,-61.36195373535156,-0.3936867713928222,-40.339054107666016,-0.2108732759952545,-8.453392028808594,-0.0863766074180603,-12.240545272827148,L,False,True,2,L,200,,0.356,LeftResponse,correct,True,26.0
88,92,614.9476666666667,1507,614.837,614.841,614.847,0.447847263971822,50.36757600449435,0.4192279577255249,47.096717834472656,0.3429786562919616,40.487396240234375,0.1575280651450157,17.85474395751953,0.0203233361244201,-2.2401583194732666,L,False,True,2,R,100,,0.363,RightResponse,correct,True,27.0
89,94,623.2446666666667,7076,622.835,622.842,622.848,0.784306488753902,89.21427751006583,-0.7393608689308167,-82.36695861816406,-0.7720313668251038,-74.61273193359375,-0.2616909891366958,-34.276397705078125,-0.1803943216800689,-13.442893981933594,L,False,True,2,R,400,,0.254,RightResponse,correct,True,22.0
90,96,631.3386666666667,7125,631.225,631.232,631.238,0.9723509188113498,110.81168198451049,-0.9450993202626704,-104.62599182128906,-0.8281411528587341,-94.22188568115234,-0.2285904288291931,-36.50521469116211,-0.2413748614490032,-30.48945999145508,L,False,True,2,R,100,,0.372,LeftResponse,incorrect,True,26.0
91,97,634.8026666666667,1585,634.391,634.396,634.401,0.3925143576687038,48.86784251762368,0.3810930550098419,47.55587387084961,0.4191881120204925,46.76940155029297,0.0939978957176208,11.24743938446045,0.0711406469345092,1.80161452293396,L,False,True,2,R,400,,0.232,LeftResponse,incorrect,True,21.0
92,98,639.5656666666666,7141,639.553,639.559,639.565,0.441695478502229,46.62950262298807,-0.4065077304840088,-41.45923614501953,-0.4521663784980774,-49.18827438354492,-0.1727609932422638,-21.34109306335449,-0.3226684778928756,-37.463523864746094,L,False,True,2,R,0,,0.266,RightResponse,correct,True,17.0
93,100,652.4806666666667,7166,652.269,652.276,652.28,0.4096379648721045,41.30524287064007,-0.3328184485435486,-34.22850036621094,-0.26165771484375,-27.620044708251957,-0.2388203144073486,-23.119966506958008,-0.1651411056518554,-14.504644393920898,L,False,True,2,R,200,,0.369,LeftResponse,incorrect,True,25.0
94,102,660.4486666666667,7182,660.239,660.244,660.25,0.4696279791884865,48.49386983646233,-0.4649597927927971,-47.46614456176758,-0.3759209513664245,-38.30865478515625,-0.0660517215728759,-9.930787086486816,0.0762235969305038,2.448397397994995,L,False,True,2,R,200,,0.279,RightResponse,correct,True,28.0
95,103,664.0376666666667,1642,663.824,663.83,663.833,0.3246912869361548,33.84112046253343,0.2591597959399223,26.72445297241211,0.4725401997566223,50.9962043762207,-0.1956032514572143,-20.76114273071289,-0.1651453375816345,-27.739559173583984,L,False,True,2,R,200,,0.341,RightResponse,correct,True,27.0
96,104,668.8136666666667,7200,668.4,668.406,668.412,0.5874678567416511,63.4927271999798,-0.5767341367900372,-61.69235229492188,-0.4876022934913635,-52.33736038208008,-0.1117864847183227,-15.01266384124756,-0.0558942854404449,-10.832331657409668,L,False,True,2,L,400,,0.302,LeftResponse,correct,True,24.0
97,105,672.1146666666667,7205,672.102,672.108,672.114,0.4543860248121606,47.67919440869488,-0.4370015934109688,-45.77902221679688,-0.3835561871528625,-44.49839782714844,-0.1244840025901794,-13.326166152954102,-0.1092531681060791,-13.41986083984375,L,False,True,2,L,0,,0.261,RightResponse,incorrect,True,16.0
98,106,675.8496666666666,7213,675.788,675.793,675.799,0.5894639541035361,68.35729643148028,-0.5411470681428909,-62.036903381347656,-0.6095314025878906,-70.69416809082031,-0.2337254881858825,-28.707883834838867,-0.0863807201385498,-10.093128204345703,L,False,True,2,L,50,,0.269,LeftResponse,correct,True,24.0
99,107,679.8506666666667,9922,679.442,679.447,679.454,0.5124734435375506,53.51958262913087,-0.2362935990095138,-35.10905075073242,-0.0457223057746887,-17.133909225463867,-0.4547464847564697,-40.394309997558594,-0.4039662331342697,-35.084259033203125,L,False,True,2,L,400,,0.349,RightResponse,incorrect,True,23.0
100,108,682.9566666666667,1668,682.845,682.853,682.859,0.9709086823969484,98.54052912047791,0.7139423787593842,74.21257019042969,0.57659912109375,63.50356674194336,0.6579893231391907,64.8284683227539,0.5437126560136676,44.531829833984375,L,False,True,2,L,100,,0.215,LeftResponse,correct,True,28.0
101,109,687.4946666666667,7241,687.281,687.287,687.291,0.4755488764694282,55.60723462564458,-0.4420701116323471,-48.91849136352539,-0.2845598459243774,-26.26161003112793,-0.1752733588218689,-26.44136428833008,-0.0457342267036438,-10.324840545654297,L,False,True,2,L,200,,0.244,LeftResponse,correct,True,26.0
102,110,693.3526666666667,7251,693.241,693.247,693.253,0.5376265142188508,57.254667306821545,-0.5360874719917774,-55.68754959106445,-0.5232576727867126,-55.25785827636719,0.0406508445739746,13.303899765014648,0.0381051898002624,3.1638903617858887,L,False,True,2,R,100,,0.214,RightResponse,correct,True,27.0
103,111,696.5916666666667,1694,696.178,696.183,696.187,0.6687708535435591,76.89564733079311,0.2693153470754623,32.1515998840332,0.177834153175354,20.67043113708496,0.61214679479599,69.85137939453125,0.5665901601314545,56.86710739135742,L,False,True,2,L,400,,0.213,LeftResponse,correct,True,26.0
104,112,699.8676666666667,7265,699.656,699.662,699.665,0.4588924078187882,51.36745164907355,-0.3048878014087677,-30.4886531829834,-0.0914469957351684,-5.588356971740723,-0.3429659903049469,-41.34074401855469,-0.4242987111210823,-52.24638366699219,L,False,True,2,L,200,,0.225,RightResponse,incorrect,True,25.0
105,113,703.7316666666667,7283,703.622,703.628,703.634,0.5477519899587365,51.43778520947294,-0.5462414771318436,-51.29812240600586,-0.3200101256370544,-34.61096954345703,-0.0406508445739746,-3.787926197052002,0.0330277979373931,6.097456455230713,L,False,True,2,L,100,,0.306,LeftResponse,correct,True,26.0
106,114,708.1486666666667,7296,708.088,708.097,708.103,1.0401259084182222,95.89082785525524,-1.008626401424408,-91.04682159423828,-0.8663183897733688,-89.93468475341797,-0.2540367841720581,-30.09197807312012,-0.0584378391504287,-14.32068920135498,L,False,True,2,R,50,,0.364,LeftResponse,incorrect,True,23.0
107,116,716.9666666666667,7330,716.556,716.561,716.566,0.4558056646042375,48.42083101112842,-0.2972582131624222,-32.47425079345703,-0.215909719467163,-19.90509986877441,-0.345537781715393,-35.91656875610352,-0.3455150723457336,-33.858619689941406,L,False,True,2,R,400,,0.318,RightResponse,correct,True,25.0
108,117,720.5516666666666,7345,720.541,720.546,720.551,0.3816561189600147,48.18149805412628,-0.3633217513561249,-45.501712799072266,-0.3302242159843445,-37.20192337036133,-0.1168704330921173,-15.844585418701172,-0.228665292263031,-21.59613609313965,L,False,True,2,R,0,,0.364,RightResponse,correct,True,19.0
109,118,724.4236666666667,7349,724.414,724.421,724.426,0.7774008903861731,86.95823267371887,-0.6859727874398232,-75.77981567382812,-0.4496229887008667,-53.39104461669922,-0.3657779097557068,-42.65153884887695,-0.2286712005734443,-27.648422241210938,L,False,True,2,R,0,,0.256,LeftResponse,incorrect,True,18.0
110,119,729.8986666666667,7356,729.884,729.892,729.897,0.6816707638021956,71.30599259814423,-0.6071231365203857,-64.036865234375,-0.5282684564590454,-49.17684555053711,-0.3099621385335922,-31.365976333618164,-0.0940076112747192,-13.258042335510254,L,False,True,2,R,0,,0.396,LeftResponse,incorrect,True,21.0
111,120,749.5496666666667,1862,749.139,749.145,749.151,0.9688505666092708,101.44378426820256,0.5462140440940857,57.76271057128906,0.5106669068336487,61.34479904174805,0.8002009987831116,83.39250946044922,0.5386427044868469,42.31538009643555,L,False,True,3,L,400,,0.221,LeftResponse,correct,True,24.0
112,121,753.2716666666666,7458,753.262,753.267,753.272,0.4229250355537187,53.86205399533826,-0.4064549803733825,-51.84613800048828,-0.3099716231226921,-36.60995101928711,-0.1168757230043411,-14.597905158996582,-0.0279481410980224,-0.739126443862915,L,False,True,3,R,0,,0.347,RightResponse,correct,True,24.0
113,122,756.6106666666667,1889,756.498,756.503,756.507,0.4314502061555315,46.19794163458449,0.2515096962451935,28.24587059020996,0.4140516519546509,45.908809661865234,-0.3505597710609436,-36.55708694458008,-0.3125169724225998,-36.67975997924805,L,False,True,3,L,100,,0.255,LeftResponse,correct,True,25.0
114,123,761.3156666666666,7479,761.302,761.309,761.313,0.4854652605293701,53.10836451864699,-0.4649176299571991,-49.30915832519531,-0.3683710694313049,-36.212799072265625,-0.1397430375218391,-19.72575187683105,-0.2591530680656433,-31.550996780395508,L,False,True,3,R,0,,0.233,RightResponse,correct,True,23.0
115,124,764.7546666666667,1904,764.744,764.751,764.757,0.8537825943922185,94.48583722386724,0.8536880910396576,94.30782318115234,0.9374825432896614,104.60553741455078,-0.0127028226852417,-5.797234058380127,-0.0609779357910156,-13.46593189239502,L,False,True,3,R,0,,0.375,RightResponse,correct,True,22.0
116,125,768.4176666666667,7498,768.208,768.215,768.221,0.7102426392424259,75.48712564208057,-0.6706924140453339,-71.01809692382812,-0.4699564576148987,-57.36436080932617,-0.2337012887001037,-25.587810516357425,-0.2438973188400268,-22.21861267089844,L,False,True,3,L,200,,0.371,LeftResponse,correct,True,28.0
117,126,772.1736666666667,7509,772.111,772.118,772.124,0.7696814863227647,77.97147969087351,-0.7341360449790955,-74.52197265625,-0.7621708437800407,-81.8525161743164,0.2312009036540985,22.935283660888672,0.4496734142303467,40.25535583496094,L,False,True,3,R,50,,0.394,RightResponse,correct,True,26.0
118,127,775.8166666666667,7525,775.606,775.612,775.618,0.5277006729976785,57.61533379298614,-0.5157253742218018,-56.8847770690918,-0.3963208496570587,-51.29561614990234,-0.1117825508117675,-9.145973205566406,-0.0330275893211364,-0.046191681176424,L,False,True,3,L,200,,0.243,LeftResponse,correct,True,27.0
119,128,780.4416666666667,7532,780.433,780.438,780.444,0.510732607724008,56.74808018796883,-0.510675735771656,-56.65719985961914,-0.5335211604833603,-58.040374755859375,0.0076216459274291,3.210344076156616,-0.149905975908041,-13.835705757141112,L,False,True,3,L,0,,0.232,LeftResponse,correct,True,21.0
120,129,784.7346666666667,7545,784.622,784.627,784.633,0.458513327550887,50.97431433416184,-0.4573225229978561,-50.83684158325195,-0.2286706250160932,-24.137470245361328,0.0330239534378051,3.741157531738281,0.055896833539009,6.398099899291992,L,False,True,3,L,100,,0.257,LeftResponse,correct,True,24.0
121,130,787.6906666666666,4748,787.575,787.582,787.589,0.7661638726703174,77.57226431172398,0.2108713090419769,30.60305976867676,0.1549835950136184,21.688575744628903,0.7365733981132507,71.2804946899414,0.9756352305412292,78.92475128173828,L,False,True,3,R,100,,0.211,RightResponse,correct,True,23.0
122,131,791.0796666666666,7558,790.967,790.972,790.977,0.4067855766664183,44.92309274863038,-0.4064998626708984,-44.92306900024414,-0.2819759249687195,-35.841548919677734,0.0152435898780822,-0.0461920052766799,-0.0482701063156127,-5.589190483093262,L,False,True,3,L,100,,0.241,LeftResponse,correct,True,22.0
123,132,794.7306666666667,7562,794.619,794.624,794.63,0.6131156476974484,69.4956546726483,-0.5945096164941788,-67.4193344116211,-0.5258679687976837,-52.26399612426758,-0.1498970091342926,-16.860586166381836,-0.2057970613241195,-21.295726776123047,L,False,True,3,R,100,,0.327,RightResponse,correct,True,21.0
124,133,798.2986666666667,7569,798.085,798.091,798.097,0.6145712975358556,74.07304836276978,-0.612250804901123,-73.14149475097656,-0.4293350875377655,-50.715850830078125,-0.0533557087182998,-11.710603713989258,-0.0990909747779369,-12.334399223327637,L,False,True,3,L,200,,0.321,LeftResponse,correct,True,26.0
125,134,803.1406666666667,7573,802.73,802.737,802.743,0.6566174042102388,69.49662634278384,-0.6555105149745941,-68.13824462890625,-0.561439722776413,-55.150146484375,-0.0381101071834564,-13.673357009887695,0.1575170457363128,9.377154350280762,L,False,True,3,L,400,,0.296,LeftResponse,correct,True,23.0
126,136,812.8746666666667,7600,812.463,812.469,812.473,0.5241669812563341,58.12960651286843,-0.409065194427967,-45.04108047485352,-0.223560631275177,-21.339704513549805,-0.3277448564767837,-36.74713897705078,-0.3709267675876617,-43.212928771972656,L,False,True,3,R,400,,0.28,RightResponse,correct,True,22.0
127,137,816.4386666666667,10215,816.428,816.434,816.44,0.6499141513936499,62.23900634770814,-0.4115935415029526,-45.75569534301758,-0.4064860939979553,-43.74360656738281,-0.5029703378677368,-42.19135284423828,-0.2515379823744297,-18.270557403564453,L,False,True,3,R,0,,0.372,LeftResponse,incorrect,True,20.0
128,138,820.6186666666666,7617,820.41,820.415,820.419,0.4205258277918022,50.6527282513583,-0.4039650559425354,-48.157012939453125,-0.2641767859458923,-30.689380645751957,-0.1168512105941772,-15.703534126281738,-0.2083409428596496,-23.213184356689453,L,False,True,3,R,200,,0.291,RightResponse,correct,True,25.0
129,139,824.6696666666667,10224,824.248,824.254,824.261,0.6757141091512163,65.43395202421898,-0.0584364235401153,-17.345905303955078,0.0939998626708984,8.568492889404297,-0.6731825470924377,-63.092960357666016,-0.5386431217193604,-55.85087966918945,L,False,True,3,L,400,,0.344,LeftResponse,correct,True,21.0
130,140,827.7586666666667,2043,827.647,827.653,827.659,0.6582644497176335,67.70141121490923,0.5157758146524429,52.77863311767578,0.3226744458079338,37.00238037109375,0.4090078175067901,42.401615142822266,0.4395541548728943,44.2788314819336,L,False,True,3,R,100,,0.254,RightResponse,correct,True,20.0
131,141,831.7556666666667,7638,831.347,831.352,831.357,0.4796569855518584,55.45876441405231,-0.4547967463731766,-52.87104797363281,-0.3098877668380737,-33.06713104248047,-0.1524163484573364,-16.742963790893555,-0.2007171511650085,-19.90992546081543,L,False,True,3,L,400,,0.221,LeftResponse,correct,True,20.0
132,142,836.0106666666667,2054,835.95,835.956,835.961,0.369676738182937,39.88446787409833,0.353169173002243,38.3197021484375,0.4191611409187317,42.72476959228516,-0.1092356443405151,-11.062151908874512,-0.0787631869316101,-10.486340522766112,L,False,True,3,R,50,,0.331,RightResponse,correct,True,25.0
133,143,839.3076666666667,7651,839.245,839.252,839.257,0.8855473483068035,87.72935763339663,-0.6910140663385391,-69.37804412841797,-0.5713813304901123,-65.4469985961914,-0.5537993013858795,-53.69475936889648,-0.2464533671736717,-24.760725021362305,L,False,True,3,L,50,,0.261,LeftResponse,correct,True,24.0
134,144,842.7216666666667,7656,842.658,842.664,842.669,0.7254145196522381,81.99939649080791,-0.6605885922908783,-75.89850616455078,-0.4826089739799499,-52.785865783691406,-0.2997481226921081,-31.03736114501953,-0.218497097492218,-23.189350128173828,L,False,True,3,R,50,,0.295,RightResponse,correct,True,23.0
135,145,846.3186666666667,7664,846.256,846.262,846.267,0.4448754823165926,51.678957943657984,-0.4446143358945846,-51.45954895019531,-0.3505964279174804,-42.542701721191406,0.0152409672737121,-4.757049083709717,-0.0050815865397453,-2.5176963806152344,L,False,True,3,L,50,,0.232,LeftResponse,correct,True,22.0
136,146,849.7706666666667,7669,849.557,849.563,849.568,0.4470047422564352,50.33626153598958,-0.439551766961813,-49.15219497680664,-0.3632544279098511,-38.65792846679688,-0.0812864303588867,-10.853614807128906,-0.0228671133518219,-6.328873157501221,L,False,True,3,R,200,,0.281,RightResponse,correct,True,24.0
137,147,853.0426666666667,2087,853.031,853.037,853.042,0.513114464784351,57.333986633731854,0.4700398407876491,52.27040481567383,0.5156610012054443,55.538692474365234,0.2057887315750122,23.55824279785156,0.1676798164844513,17.969066619873047,L,False,True,3,L,0,,0.221,LeftResponse,correct,True,23.0
138,148,856.8236666666667,7687,856.761,856.767,856.773,0.5544765567197222,57.68110755816581,-0.5106950104236603,-55.204097747802734,-0.4750723838806152,-50.34845352172852,-0.2159510552883148,-16.72177505493164,-0.0863869190216064,-13.373785018920898,L,False,True,3,L,50,,0.273,LeftResponse,correct,True,21.0
139,149,860.5246666666667,2105,860.512,860.519,860.525,0.7141781565738908,74.01398997004897,0.6250289976596832,66.79926300048828,0.6656669080257416,70.70198059082031,0.3455274105072021,31.87364387512207,0.2693181484937668,23.813663482666016,L,False,True,3,L,0,,0.22,RightResponse,incorrect,True,22.0
140,150,864.4216666666666,7706,864.361,864.366,864.371,0.4352010000573649,49.50965650220186,-0.43445885181427,-49.47430038452149,-0.3632971048355102,-45.359901428222656,-0.0254050493240356,1.8707454204559328,0.0736807286739349,5.196920394897461,L,False,True,3,L,50,,0.395,LeftResponse,correct,True,20.0
141,151,869.0716666666667,7714,868.86,868.866,868.871,0.4674591491591036,50.24805586739921,-0.4598781019449234,-47.97426223754883,-0.3404250144958496,-38.63840103149414,-0.0838462132960558,-14.944473266601562,-0.139727771282196,-18.79946517944336,L,False,True,3,R,200,,0.313,LeftResponse,incorrect,True,23.0
142,152,874.0096666666667,7724,873.796,873.802,873.807,0.5222846184001723,57.54896536171167,-0.4852787423878908,-53.0086555480957,-0.2642230689525604,-28.31605339050293,-0.1930952221155166,-22.40459442138672,-0.1600685939192772,-22.68216896057129,L,False,True,3,L,200,,0.377,LeftResponse,correct,True,26.0
143,153,877.1906666666666,10314,877.076,877.081,877.089,0.5280291056504726,49.73520684507886,0.2083376049995422,30.97364044189453,0.322660356760025,40.81219100952149,-0.4851908683776855,-38.91303634643555,-0.5462637096643448,-47.23530960083008,L,False,True,3,L,100,,0.309,LeftResponse,correct,True,19.0
144,154,882.4776666666667,7737,882.414,882.421,882.426,0.6258718641562626,67.8369737381535,-0.5742107927799225,-60.07719802856445,-0.4369413256645202,-48.12770080566406,-0.2489930838346481,-31.505321502685547,-0.1702203452587127,-20.024341583251957,L,False,True,3,R,50,,0.344,LeftResponse,incorrect,True,19.0
145,155,886.1756666666666,4925,885.761,885.768,885.776,0.7841430765092139,69.69069029623248,-0.2388172447681427,-27.484468460083008,-0.2566063702106476,-30.58025550842285,0.7468913495540619,64.04214477539062,0.8054074198007584,80.10212707519531,L,False,True,3,R,400,,0.266,LeftResponse,incorrect,True,19.0
146,156,890.1386666666667,7753,890.126,890.133,890.135,0.3011021766777671,34.526064606201814,-0.2566150724887848,-20.21031379699707,-0.2895620465278625,-17.040666580200195,-0.1575157940387725,-27.992719650268555,-0.3379232697188854,-31.94463157653809,L,False,True,3,L,0,,0.27,LeftResponse,correct,True,25.0
147,157,896.0296666666667,7758,895.818,895.826,895.831,0.5223832180838699,50.58410361220355,-0.4166823429986834,-41.275333404541016,-0.4293145537376404,-41.822261810302734,-0.3150556324981153,-29.2420654296875,-0.1752793192863464,-20.02220916748047,L,False,True,3,R,200,,0.289,RightResponse,correct,True,25.0
148,158,899.0946666666666,4949,898.681,898.687,898.695,0.6160795099580653,55.26464102757974,0.2591597959399223,27.117095947265625,0.1194100081920623,18.662229537963867,0.5589187443256378,48.15437316894531,0.416683810763061,38.434532165527344,L,False,True,3,R,400,,0.22,LeftResponse,incorrect,True,22.0
149,160,921.2096666666666,7830,920.796,920.803,920.809,0.4848817816003049,48.64195814567127,-0.4775786995887756,-47.98872756958008,-0.2769114375114441,-37.62230682373047,0.0838387012481689,7.944942951202393,0.233744814991951,25.083425521850582,L,False,True,4,R,400,,0.354,LeftResponse,incorrect,True,25.0
150,161,926.0106666666667,7836,925.797,925.804,925.809,0.518347277749912,57.69797486494378,-0.5055835843086243,-56.03202819824219,-0.5486857295036316,-59.117431640625,-0.1143203377723693,-13.764741897583008,-0.132121279835701,-17.531476974487305,L,False,True,4,R,200,,0.369,RightResponse,correct,True,24.0
151,162,930.1156666666667,7848,930.102,930.107,930.112,0.3797130445304009,40.526612885340256,-0.37091064453125,-39.26194763183594,-0.2539547681808471,-25.949617385864254,-0.0812852382659912,-10.045188903808594,0.0304894223809242,1.0163145065307615,L,False,True,4,R,0,,0.284,LeftResponse,incorrect,True,24.0
152,163,934.8946666666667,7856,934.884,934.889,934.894,0.4156906529366089,46.93565492491493,-0.3836457729339599,-43.83869171142578,-0.381007969379425,-42.39577865600586,-0.1600457429885864,-16.76677703857422,-0.1168762184679508,-14.343879699707031,L,False,True,4,L,0,,0.331,LeftResponse,correct,True,27.0
153,164,938.6046666666667,7862,938.194,938.201,938.207,0.77793342588459,76.6736601658579,-0.6553663015365601,-64.17310333251953,-0.2540625035762787,-23.07351493835449,-0.4191365242004394,-41.96025466918945,-0.2718644067645073,-27.16335678100586,L,False,True,4,L,400,,0.33,LeftResponse,correct,True,28.0
154,165,941.6646666666667,2255,941.456,941.461,941.467,0.5496123895550776,62.85142399797039,0.5106647461652756,58.57320785522461,0.5513033717870712,66.400634765625,0.2032124400138855,22.79212188720703,0.1778546348214149,12.17264175415039,L,False,True,4,R,200,,0.305,RightResponse,correct,True,23.0
155,166,944.7036666666667,2263,944.643,944.649,944.655,0.666167744286213,67.35650611437896,0.5335517206694931,53.79429626464844,0.5640421397984028,59.106563568115234,-0.3988759517669678,-40.53483200073242,-0.4370119124650955,-37.3951530456543,L,False,True,4,L,50,,0.228,LeftResponse,correct,True,22.0
156,167,948.3846666666667,7882,947.974,947.98,947.984,0.4503445995033875,47.773244622379856,-0.3531450033187866,-37.04654693603516,-0.1676777899265289,-18.8925895690918,-0.2794617414474487,-30.16349220275879,-0.3887378834187984,-35.68622970581055,L,False,True,4,L,400,,0.278,LeftResponse,correct,True,27.0
157,168,953.5176666666666,7889,953.405,953.412,953.418,0.5996673428633893,58.88460471148069,-0.5970565378665924,-58.55096435546875,-0.5690450072288513,-62.493385314941406,-0.055896446108818,-6.25949239730835,0.246454332023859,19.26358795166016,L,False,True,4,L,100,,0.24,LeftResponse,correct,True,18.0
158,169,956.8276666666667,7896,956.717,956.725,956.729,0.6090064463994318,68.12998987555353,-0.4979902356863022,-50.16852569580078,-0.3124375343322754,-31.91297912597656,-0.3505632281303406,-46.09571075439453,-0.337924100458622,-29.426950454711918,L,False,True,4,L,100,,0.208,LeftResponse,correct,True,17.0
159,170,960.3626666666667,7902,960.25,960.255,960.261,0.4478247238957637,48.15213759233944,-0.4446366131305694,-47.65122985839844,-0.3250953555107116,-36.87382507324219,0.0533410310745239,6.927383899688721,0.1753140036016702,23.559982299804688,L,False,True,4,R,100,,0.333,RightResponse,correct,True,16.0
160,171,963.2476666666666,2297,963.187,963.191,963.197,0.4495575621342806,47.28500248418046,0.3480684459209442,38.75639724731445,0.2641591429710388,30.710561752319336,0.284517765045166,27.088985443115234,0.2744036358781159,28.7108154296875,L,False,True,4,L,50,,0.279,LeftResponse,correct,True,21.0
161,172,967.2116666666667,2300,967.199,967.204,967.208,0.2899283706641846,30.37580129680482,0.2896500080823898,29.86584854125977,0.3073741793632507,35.86438751220703,-0.0127016901969909,-5.542598247528076,-0.0838398337364196,-12.633682250976562,L,False,True,4,L,0,,0.286,LeftResponse,correct,True,26.0
162,173,971.7406666666667,7920,971.628,971.635,971.641,0.5953378519083232,58.67722778969652,-0.5894041657447815,-58.43202972412109,-0.5867523550987244,-62.691707611083984,-0.0838444232940673,-5.358634471893311,0.0457317531108856,3.3952176570892334,L,False,True,4,L,100,,0.31,LeftResponse,correct,True,15.0
163,174,975.5676666666667,7930,975.505,975.511,975.514,0.4113900856839828,46.765186914957006,-0.2946794033050537,-31.892696380615234,-0.1854280829429626,-18.10391998291016,-0.2870641946792602,-34.202903747558594,-0.23121078312397,-28.66459083557129,L,False,True,4,L,50,,0.224,LeftResponse,correct,True,20.0
164,175,979.9136666666667,7943,979.8,979.807,979.812,0.5357263177916369,55.382620871776815,-0.5233845636248589,-54.20909881591797,-0.4546614289283752,-53.54573440551758,-0.1143297255039215,-11.34055995941162,0.0635182559490203,6.051549434661865,L,False,True,4,L,100,,0.269,LeftResponse,correct,True,14.0
165,176,984.9226666666667,2332,984.909,984.913,984.917,0.2242324094668629,25.418399145105404,0.2108811438083648,23.397863388061523,0.2845558822154999,32.128116607666016,-0.0762188732624054,-9.93151569366455,-0.0762225836515426,-7.760847568511963,L,False,True,4,L,0,,0.252,LeftResponse,correct,True,25.0
166,177,988.0116666666667,10489,987.946,987.95,987.956,0.4048413708405761,49.1347915783464,-0.0940061807632446,-19.54018783569336,-0.1193903684616088,-20.875362396240234,-0.3937757909297943,-45.08224487304688,-0.332841794937849,-34.73936080932617,L,False,True,4,L,50,,0.375,LeftResponse,correct,True,19.0
167,178,991.5086666666667,7969,991.296,991.303,991.309,0.6610951655242296,65.75078876997927,-0.4598325490951538,-47.25292205810547,-0.1676535606384277,-22.56193733215332,-0.4749745726585388,-45.72010040283203,-0.3633258193731308,-28.89537048339844,L,False,True,4,L,200,,0.329,LeftResponse,correct,True,22.0
168,179,995.0606666666666,7979,994.997,995.001,995.005,0.2647359372242417,31.88978958420176,-0.2362752854824066,-28.29295539855957,-0.1117722988128662,-13.671293258666992,-0.1194114983081817,-14.71282958984375,-0.1981815285980701,-20.118423461914062,L,False,True,4,R,50,,0.235,LeftResponse,incorrect,True,18.0
169,180,998.2786666666667,10504,998.068,998.072,998.078,0.4418610913986333,51.813414603089406,-0.139732152223587,-19.469898223876957,-0.0736691951751709,-17.62010383605957,-0.4191851019859314,-48.01617431640625,-0.5360916298814118,-53.47042465209961,L,False,True,4,L,200,,0.227,LeftResponse,correct,True,21.0
170,181,1001.4096666666667,10510,1001.196,1001.202,1001.209,0.4815311847607059,51.6077752141818,-0.0787629336118698,-19.725147247314453,0.0050810575485229,-12.702521324157717,-0.4750459790229797,-47.68942260742188,-0.4675034880638122,-40.075138092041016,L,False,True,4,L,200,,0.259,LeftResponse,correct,True,20.0
171,182,1005.1106666666667,7995,1004.699,1004.705,1004.708,0.4404395253228187,49.86883008143944,-0.3404328227043152,-36.69910430908203,-0.2591207027435303,-24.41059112548828,-0.2794502973556518,-33.765010833740234,-0.5233998745679855,-55.4121322631836,L,False,True,4,R,400,,0.396,LeftResponse,incorrect,True,26.0
172,183,1008.0876666666667,8000,1007.674,1007.68,1007.686,1.0934893128359129,105.73240320469998,-0.7139123678207397,-76.54181671142578,-0.3556705117225647,-34.5970573425293,-0.8282801508903503,-72.94306945800781,-0.8001867234706879,-70.57215118408203,L,False,True,4,R,400,,0.224,RightResponse,correct,True,29.0
173,184,1012.4546666666666,8014,1012.346,1012.351,1012.357,0.5915158766132044,62.99535739364628,-0.5664927959442139,-60.25273513793945,-0.4445001482963562,-49.13819885253906,-0.1702261567115783,-18.385400772094727,-0.055895984172821,-6.582790851593018,L,False,True,4,R,100,,0.301,RightResponse,correct,True,13.0
174,185,1016.1606666666667,8026,1015.948,1015.955,1015.961,0.573189343089187,61.19971122221639,-0.530973881483078,-55.63759994506836,-0.5842426419258118,-64.4978256225586,0.2158998847007751,25.492393493652344,0.3582507371902466,34.43925857543945,L,False,True,4,L,200,,0.314,LeftResponse,correct,True,19.0
175,186,1018.9666666666667,8035,1018.953,1018.957,1018.96,0.3598784659462234,40.54481302439723,-0.2235588431358337,-23.18727684020996,-0.088920772075653,-10.25475025177002,-0.2820176482200622,-33.260066986083984,-0.3430024553090334,-39.03535842895508,L,False,True,4,L,0,,0.308,RightResponse,incorrect,True,24.0
176,187,1023.2626666666666,8044,1022.849,1022.855,1022.86,0.50568577510574,52.68424131875701,-0.4470990300178528,-50.36770248413086,-0.4876962900161743,-58.92872619628906,-0.2362637519836425,-15.450690269470217,-0.2235858738422393,-14.27432346343994,L,False,True,4,L,400,,0.282,LeftResponse,correct,True,28.0
177,188,1026.1976666666665,8049,1026.085,1026.091,1026.096,0.4810743867854927,51.501141077553385,-0.4749990701675415,-50.29389953613281,-0.3403708338737488,-37.801048278808594,-0.0762131810188293,-11.085630416870115,0.0279480218887329,4.642574310302734,L,False,True,4,R,100,,0.208,LeftResponse,incorrect,True,12.0
178,190,1034.1456666666666,8067,1033.736,1033.74,1033.745,0.4040053832583762,43.97649796083074,-0.4014084637165069,-43.974945068359375,-0.3556787371635437,-39.563602447509766,-0.0457339584827423,-0.3695661425590515,-0.0609779357910156,-9.215993881225586,L,False,True,4,R,400,,0.368,RightResponse,correct,True,27.0
179,191,1038.3426666666667,2464,1037.929,1037.937,1037.943,0.7640017264189718,72.36429287682834,0.7596634179353714,71.97148132324219,0.8333644866943359,96.13284301757812,-0.0813027024269104,-7.529725074768066,0.0533565729856491,2.101922512054444,L,False,True,4,L,400,,0.223,LeftResponse,correct,True,26.0
180,192,1042.8596666666665,8087,1042.746,1042.753,1042.758,0.5133387743303406,49.18803678928206,-0.5055788606405258,-48.91764450073242,-0.2413340210914611,-30.94635009765625,-0.0889196991920471,-5.1504387855529785,0.0609770417213439,7.298792839050293,L,False,True,4,R,100,,0.344,RightResponse,correct,True,15.0
181,193,1047.2066666666665,8094,1046.996,1047.0,1047.005,0.2179704892950245,26.945316678193524,-0.2032443583011627,-25.243844985961918,-0.2032152414321899,-23.02357482910156,0.0787582695484161,9.42328929901123,0.1549877747893333,18.824892044067383,L,False,True,4,R,200,,0.272,RightResponse,correct,True,18.0
182,194,1050.7996666666666,2494,1050.782,1050.784,1050.786,0.1481456775272349,21.546739455225545,0.1270394064486026,17.554534912109375,0.1753015220165252,25.544565200805664,0.0762110948562622,12.494009971618652,0.1168757602572441,19.240558624267575,L,False,True,4,R,0,,0.337,RightResponse,correct,True,26.0
183,195,1054.4386666666664,2505,1054.425,1054.431,1054.436,0.6293811886668632,70.55773322497906,0.531014371663332,60.885528564453125,0.5716362595558167,66.54129791259766,0.3378526568412781,35.655941009521484,0.2210488840937614,17.13880729675293,L,False,True,4,R,0,,0.372,RightResponse,correct,True,25.0
184,196,1057.7276666666667,10606,1057.511,1057.516,1057.521,0.3933982467773709,47.67118191391816,0.1448108553886413,17.806705474853516,0.4470599293708801,42.62725830078125,-0.3657758831977844,-44.22061538696289,-0.3328393641859293,-32.937583923339844,L,False,True,4,R,200,,0.335,RightResponse,correct,True,17.0
185,197,1061.5906666666665,8128,1061.528,1061.534,1061.541,0.6317283947850254,64.85313994960954,-0.561449408531189,-57.80806350708008,-0.3912495076656341,-41.642578125,-0.289577841758728,-29.396556854248047,-0.1880136132240295,-22.1506290435791,L,False,True,4,R,50,,0.267,RightResponse,correct,True,21.0
186,198,1064.9096666666665,8139,1064.849,1064.856,1064.862,0.7478889157627746,77.79485755841472,-0.6884649097919464,-73.30316925048828,-0.6173157393932343,-63.64832305908203,-0.2921538949012756,-26.05158805847168,-0.4395525082945823,-40.92953109741211,L,False,True,4,R,50,,0.258,RightResponse,correct,True,20.0
187,199,1068.9476666666665,8148,1068.885,1068.89,1068.895,0.3503216745994292,38.932415822110464,-0.3201285302639007,-35.823875427246094,-0.3759972155094147,-42.33417510986328,-0.1422778964042663,-15.244112014770508,-0.182936955243349,-16.699934005737305,L,False,True,4,R,50,,0.327,RightResponse,correct,True,19.0
188,200,1085.5636666666664,8202,1085.352,1085.357,1085.362,0.3734897035103825,41.54941914794122,-0.373455137014389,-41.20244216918945,-0.1829153299331665,-21.52488136291504,0.0050812661647796,-5.358450412750244,0.0965470969676971,8.569116592407227,L,False,True,5,R,200,,0.291,RightResponse,correct,True,16.0
189,201,1089.3566666666666,8211,1089.295,1089.301,1089.306,0.593452125128747,64.5453858411568,-0.4673143029212951,-50.84048461914063,-0.4596778750419616,-51.30046844482422,0.3657906055450439,39.76621627807617,0.3404592126607895,43.192630767822266,L,False,True,5,R,50,,0.371,RightResponse,correct,True,18.0
190,202,1092.8076666666666,5308,1092.394,1092.401,1092.407,0.515111852699801,52.33088148492466,0.1930809915065765,24.68928337097168,0.005080223083496,3.81014895439148,0.4775562286376953,46.14065933227539,0.6275262385606766,52.17603302001953,L,False,True,5,R,400,,0.201,RightResponse,correct,True,25.0
191,203,1096.7716666666665,8230,1096.561,1096.567,1096.574,0.6531422605741571,66.40680349822289,-0.6198735535144806,-64.18180847167969,-0.5233050584793091,-59.02748489379883,-0.205795019865036,-17.045791625976562,-0.0736828483641147,-11.110187530517578,L,False,True,5,L,200,,0.343,RightResponse,incorrect,True,15.0
192,204,1101.2386666666666,10687,1101.029,1101.031,1101.036,0.3107758252113878,36.523116608637054,-0.1753081977367401,-24.94505500793457,-0.022865355014801,-2.840848684310913,-0.2566099166870117,-26.6773738861084,-0.2108842320740223,-25.6386775970459,L,False,True,5,R,200,,0.336,RightResponse,correct,True,18.0
193,205,1104.9816666666666,8244,1104.918,1104.925,1104.932,0.653711545267688,69.78764591595397,-0.6427121460437775,-67.82782745361328,-0.4217109382152557,-41.940425872802734,-0.119414746761322,-16.42258644104004,-0.1346616856753826,-11.040865898132324,L,False,True,5,L,50,,0.322,RightResponse,incorrect,True,17.0
194,206,1107.7006666666666,5335,1107.689,1107.693,1107.7,0.3827645074968249,41.0202110857574,-0.2642382904887199,-33.16834259033203,-0.083844169974327,-13.488964080810549,0.276923805475235,24.135425567626957,0.4344680546782911,41.36781311035156,L,False,True,5,L,0,,0.234,RightResponse,incorrect,True,24.0
195,207,1112.9046666666666,10707,1112.689,1112.69,1112.693,0.1535001534916265,21.733318409802145,-0.0635165274143219,-10.740093231201172,-0.1549670696258545,-24.5732364654541,-0.1397424340248108,-18.89411354064941,-0.1244928240776062,-18.22346305847168,L,False,True,5,R,200,,0.277,RightResponse,correct,True,17.0
196,208,1117.1676666666665,8277,1117.158,1117.163,1117.169,0.5081704219812693,59.35655333236456,-0.5081132650375366,-58.9642333984375,-0.4344296455383301,-47.369285583496094,-0.0076215267181396,-6.813193321228027,0.1930859386920929,13.811668395996094,L,False,True,5,L,0,,0.389,RightResponse,incorrect,True,27.0
197,210,1127.4596666666666,8301,1127.4,1127.405,1127.41,0.367480488801075,43.539588553801416,-0.3531526178121567,-43.19126892089844,-0.4369481801986694,-45.31029510498047,0.1016126871109008,5.496367931365967,-0.0914684776216745,-1.8247495889663696,L,False,True,5,L,50,,0.335,RightResponse,incorrect,True,20.0
198,211,1130.8526666666667,8313,1130.639,1130.647,1130.653,0.7398021405071855,80.10830392248157,-0.7392742037773132,-80.09245300292969,-0.6604411602020264,-76.4117202758789,0.0279438495635986,-1.5935273170471191,0.0203263238072395,2.217417001724243,L,False,True,5,R,200,,0.352,RightResponse,correct,True,16.0
199,213,1138.5096666666666,8334,1138.097,1138.104,1138.11,0.7872156951604516,79.29289401924453,-0.7747158408164978,-77.86328125,-0.6122337281703949,-67.52670288085938,-0.1397280097007751,-14.989078521728516,-0.1219579598400741,-12.72706127166748,L,False,True,5,L,400,,0.281,RightResponse,incorrect,True,24.0
200,214,1142.6226666666666,8342,1142.512,1142.519,1142.523,0.6180765380452713,67.73080197899941,-0.3861254453659057,-36.74137496948242,-0.337889164686203,-27.136627197265625,-0.482623815536499,-56.899322509765625,-0.4624217748641968,-41.045188903808594,L,False,True,5,L,100,,0.298,RightResponse,incorrect,True,13.0
201,215,1146.1206666666665,8351,1146.059,1146.065,1146.07,0.3934207261742192,38.05312662576437,-0.3886678814888,-37.2962646484375,-0.309930145740509,-37.32106399536133,0.0609683990478515,7.551760673522949,0.0838422179222107,9.469797134399414,L,False,True,5,R,50,,0.379,RightResponse,correct,True,23.0
202,216,1149.5216666666665,8359,1149.511,1149.515,1149.519,0.3161686302618093,36.31598744691666,-0.223560631275177,-26.67490005493164,-0.2336705923080444,-26.99216079711914,-0.2235693335533142,-24.64347076416016,-0.1753109693527221,-17.877511978149414,L,False,True,5,L,0,,0.242,LeftResponse,correct,True,30.0
203,217,1152.9776666666667,8368,1152.766,1152.771,1152.776,0.4688244102106911,57.04743110596825,-0.4598167240619659,-56.09696578979492,-0.4115322232246399,-51.10636138916016,-0.0914598703384399,-10.37014102935791,-0.1346614547073841,-17.924060821533203,L,False,True,5,L,200,,0.33,RightResponse,incorrect,True,15.0
204,218,1156.3326666666665,8377,1156.322,1156.329,1156.335,0.5081339796288731,51.66506504081842,-0.5080768167972565,-51.66183853149414,-0.6248167157173157,-76.93500518798828,0.0076216459274291,-0.5773952007293701,-0.1473659798502922,-13.766480445861816,L,False,True,5,R,0,,0.231,RightResponse,correct,True,29.0
205,219,1160.2796666666666,8388,1160.166,1160.168,1160.173,0.215001067339575,26.5348248458742,-0.1753045916557312,-19.35517120361328,-0.241341233253479,-29.653966903686523,0.1244739294052124,18.151426315307617,0.1346616856753826,14.667281150817873,L,False,True,5,R,100,,0.261,RightResponse,correct,True,16.0
206,220,1164.1806666666666,8397,1163.772,1163.776,1163.78,0.3165976798328039,36.45327591048287,-0.2921765744686126,-33.444358825683594,-0.2514877915382385,-26.46487045288086,-0.1219300627708435,-14.50228214263916,-0.0965454876422882,-11.45613956451416,L,False,True,5,R,400,,0.219,RightResponse,correct,True,27.0
207,221,1168.6146666666666,8412,1168.504,1168.509,1168.514,0.3311880546992814,39.10443981712701,-0.2870815098285675,-35.52142333984375,-0.2362499833106994,-23.62464904785156,-0.1651355028152465,-16.351932525634766,-0.1524473428726196,-16.23793601989746,L,False,True,5,L,100,,0.29,RightResponse,incorrect,True,15.0
208,222,1172.6786666666665,8418,1172.268,1172.273,1172.278,0.4418838490719189,45.78226510800953,-0.4268392994999885,-43.931060791015625,-0.3175612390041351,-34.781494140625,0.1143221259117126,12.887113571166992,0.2261302284896373,27.60222053527832,L,False,True,5,R,400,,0.276,RightResponse,correct,True,26.0
209,223,1176.7916666666665,8426,1176.38,1176.387,1176.393,0.7187711981560604,75.63323515843433,-0.5893244743347168,-64.52083587646484,-0.4952318072319031,-53.218631744384766,-0.4114956855773926,-39.46451568603516,-0.2616980224847793,-23.32858085632324,L,False,True,5,L,400,,0.248,LeftResponse,correct,True,25.0
210,224,1180.6556666666665,8433,1180.544,1180.55,1180.554,0.5382185082723191,57.99338514291828,-0.4039485454559326,-43.51260757446289,-0.3886626362800598,-43.0225944519043,-0.3556750416755676,-38.339088439941406,-0.2210436016321182,-24.78365135192871,L,False,True,5,L,100,,0.317,RightResponse,incorrect,True,18.0
211,225,1185.1516666666666,8447,1184.936,1184.944,1184.95,0.4508344876643829,38.81980137948013,-0.431814968585968,-37.06245422363281,-0.3810577988624573,-37.15813446044922,-0.1295668482780456,-11.54779052734375,-0.1448233872652053,-26.008129119873047,L,False,True,5,L,200,,0.266,LeftResponse,correct,True,18.0
212,226,1188.8776666666665,2838,1188.465,1188.471,1188.477,0.4711674087830377,49.747317847585165,0.4649621844291687,49.660770416259766,0.5106506049633026,55.36124801635742,-0.0762161016464233,-2.9331748485565186,-0.0406510829925537,-2.7023556232452397,L,False,True,5,L,400,,0.239,LeftResponse,correct,True,24.0
213,227,1192.5336666666665,2850,1192.422,1192.428,1192.433,0.4371421668571787,50.23858729034996,0.4344688467681408,49.36011505126953,0.4572486281394958,42.331642150878906,0.0482710599899292,9.353859901428224,0.0406527081504464,2.633186817169189,L,False,True,5,L,100,,0.256,RightResponse,incorrect,True,21.0
214,228,1196.1096666666665,8473,1195.697,1195.704,1195.709,0.5877578491875356,57.43191936745367,-0.4827014207839966,-48.246315002441406,-0.2667431831359863,-30.738359451293945,-0.335348516702652,-31.156354904174805,-0.3023472875356674,-31.57415580749512,L,False,True,5,R,400,,0.292,RightResponse,correct,True,23.0
215,229,1198.9906666666666,8478,1198.927,1198.932,1198.937,0.324731201756213,31.30996676677124,-0.3150396645069122,-30.14122772216797,-0.1854418516159057,-17.227642059326172,-0.0787423849105835,-8.474692344665527,0.0,1.408926486968994,L,False,True,5,L,50,,0.221,RightResponse,incorrect,True,22.0
216,230,1203.3786666666665,8486,1203.369,1203.374,1203.378,0.4700974976590595,56.62413031453209,-0.3556840717792511,-43.14392852783203,-0.2921302914619446,-31.1756534576416,-0.3073768019676208,-36.67279052734375,-0.2312096357345581,-25.985122680664062,L,False,True,5,R,0,,0.383,RightResponse,correct,True,28.0
217,231,1206.4016666666666,2876,1206.391,1206.397,1206.402,0.508256738423891,51.52416042523887,0.5081551671028137,51.43930435180664,0.6198867559432983,69.42594909667969,0.0101606249809265,-2.9558544158935547,-0.0101630389690399,-2.286672830581665,L,False,True,5,L,0,,0.248,RightResponse,incorrect,True,27.0
218,232,1209.7696666666666,2883,1209.709,1209.717,1209.722,0.5367064077285377,51.79290485925038,0.510670855641365,45.01636505126953,0.6325994729995728,65.66302490234375,-0.1651334166526794,-25.61311912536621,-0.0990909384563565,-17.069488525390625,L,False,True,5,R,50,,0.245,RightResponse,correct,True,25.0
219,233,1213.2586666666666,8506,1213.047,1213.052,1213.057,0.4926983288379816,51.75922131358082,-0.3633112013339996,-39.79566192626953,-0.1803827285766601,-22.819190979003903,-0.3328011631965637,-33.09565353393555,-0.421769455075264,-41.43785858154297,L,False,True,5,L,200,,0.203,RightResponse,incorrect,True,17.0
220,234,1216.5226666666665,8514,1216.509,1216.515,1216.521,0.5825854340490859,64.6996926659593,-0.5817873179912567,-64.66848754882812,-0.3327792882919311,-44.33998107910156,-0.0304844975471496,-2.009216070175171,-0.0127038210630416,-2.956528663635254,L,False,True,5,R,0,,0.28,RightResponse,correct,True,30.0
221,235,1219.6286666666665,8521,1219.568,1219.575,1219.581,0.6397141580225875,65.6359658353784,-0.6351582482457161,-65.5945053100586,-0.4648868441581726,-43.37070846557617,0.0762115716934204,2.3325703144073486,0.1244951784610748,15.17490291595459,L,False,True,5,R,50,,0.29,RightResponse,correct,True,24.0
222,236,1222.7676666666666,8529,1222.655,1222.662,1222.668,0.8658968105765744,96.45291465026784,-0.7239806354045868,-78.21749114990234,-0.5918602347373962,-66.06647491455078,-0.4750045537948608,-56.437477111816406,-0.4192292839288711,-39.31288528442383,L,False,True,5,R,100,,0.218,RightResponse,correct,True,24.0
223,237,1228.4386666666664,8541,1228.03,1228.036,1228.042,0.7882904995251542,79.1809471490693,-0.6402445659041405,-62.476749420166016,-0.5512340664863586,-60.664344787597656,-0.4598791226744652,-48.64440536499024,-0.3328269571065902,-28.801437377929688,L,False,True,5,L,400,,0.218,RightResponse,incorrect,True,22.0
224,238,1231.4986666666666,8550,1231.39,1231.396,1231.401,0.8131817111502677,82.05389737383827,-0.4598603695631027,-46.678897857666016,-0.1956266164779663,-20.001449584960938,-0.6706660389900208,-67.48275756835938,-0.5792917907238007,-58.02177429199219,L,False,True,5,R,100,,0.348,RightResponse,correct,True,23.0
225,239,1234.8586666666665,8558,1234.797,1234.803,1234.808,0.4640383509206122,53.53520482398329,-0.4521981477737427,-49.97706604003906,-0.3556509613990783,-42.88576126098633,-0.1041557788848877,-19.191431045532227,-0.0965501889586448,-10.07078456878662,L,False,True,5,L,50,,0.222,RightResponse,incorrect,True,23.0
