,trialIndex,targetOnsetTime,Unnamed: 0,startTime,peakVelocityTime,stopTime,amplitude,peakVelocity,saccade_vec_left_x,peak_velocity_vec_left_x,saccade_vec_right_x,peak_velocity_vec_right_x,saccade_vec_left_y,peak_velocity_vec_left_y,saccade_vec_right_y,peak_velocity_vec_right_y,whichEye,otherEyeMissingData,isBinocular,blockId,arrowDirection,latency,blankDuration,fixationDurationInSec,response,result,isSaccade,blankDurationInFrameCount
0,0,175.61566666666667,8486,175.2,175.207,175.213,0.8968314665268655,90.93812864217904,-0.6910413801670074,-73.42369842529297,-0.3937658369541168,-38.91403579711914,-0.5716366767883301,-53.6535530090332,-0.4547877907752991,-49.543827056884766,L,False,True,0,R,400,,0.237,RightResponse,correct,True,4.0
1,1,181.56066666666666,5769,181.499,181.504,181.51,0.4853220011898829,52.99275050962834,-0.4852621406316757,-52.706844329833984,-0.1498829126358032,-25.33458709716797,0.0076223164796829,5.497287273406982,0.0914680212736129,9.608750343322754,L,False,True,0,L,50,,0.217,RightResponse,incorrect,True,4.0
2,2,184.98666666666668,3217,184.577,184.583,184.592,0.6885808090358309,56.97327431830087,-0.0076217651367187,8.49919605255127,0.2057437896728515,34.43265151977539,0.6885386258363724,56.33575820922852,0.7444406151771545,67.86168670654297,L,False,True,0,R,400,,0.215,RightResponse,correct,True,3.0
3,4,196.21166666666667,5790,196.197,196.203,196.207,0.6091426698872225,59.74043665722664,-0.4217345416545868,-43.16717529296875,-0.2870709300041199,-32.58672332763672,0.4395392686128616,41.29787826538086,0.3379229828715324,30.09665298461914,L,False,True,0,L,0,,0.358,LeftResponse,correct,True,4.0
4,5,200.30866666666668,5794,199.884,199.889,199.894,0.7158763010062684,83.89405173426537,-0.6757572293281555,-80.09239196777344,-0.5385673642158508,-57.113014221191406,0.2362859398126602,24.968393325805664,0.4776603616774082,40.58292007446289,L,False,True,0,L,400,,0.271,RightResponse,incorrect,True,5.0
5,8,220.40466666666669,5810,220.344,220.351,220.355,0.8971709055627325,96.04989361682556,-0.5564111135900021,-57.4664306640625,-0.4776070415973663,-50.67008209228516,0.7037913799285889,76.96227264404297,0.5640519261360168,56.844200134277344,L,False,True,0,R,50,,0.334,RightResponse,correct,True,7.0
6,11,244.87266666666667,5835,244.663,244.667,244.672,0.6161568849020611,69.45021105535763,-0.4394829273223877,-53.83267593383789,-0.2819685935974121,-36.18626403808594,0.4318611621856689,43.879093170166016,0.2616543769836426,28.382801055908203,L,False,True,0,R,200,,0.215,RightResponse,correct,True,4.0
7,12,248.6906666666667,5843,248.625,248.628,248.634,0.2300251898392737,26.55855498522947,-0.2286186218261718,-26.32564353942871,-0.2032169699668884,-16.858078002929688,-0.0253990888595581,3.509606122970581,0.1905110478401184,13.878746032714844,L,False,True,0,L,50,,0.313,LeftResponse,correct,True,6.0
8,14,259.9856666666667,5853,259.922,259.928,259.933,0.5894371188595066,62.265349039834106,-0.5665664374828339,-61.83065032958984,-0.3480098843574524,-30.5976505279541,0.1625994741916656,7.3446831703186035,0.409050852060318,33.92964172363281,L,False,True,0,R,50,,0.31,RightResponse,correct,True,5.0
9,16,270.7026666666667,532,270.591,270.596,270.599,0.4507170499193292,51.606329043042905,0.3632921874523163,38.47679138183594,0.5233437716960907,57.48518753051758,0.2667670249938965,34.39112854003906,0.4014189839363098,44.87649917602539,L,False,True,0,R,100,,0.386,RightResponse,correct,True,4.0
10,18,282.70166666666665,548,282.691,282.695,282.7,0.4104213327555583,43.9102279480465,0.3963089287281036,43.44169616699219,0.485205590724945,58.65874481201172,0.10670006275177,6.397433280944824,0.1956192851066589,13.326228141784668,L,False,True,0,R,0,,0.264,LeftResponse,incorrect,True,3.0
11,20,293.43466666666666,3351,293.367,293.373,293.381,0.9628978921568748,93.47313311718972,0.0127021670341491,-8.89100170135498,-0.0508036017417907,-6.374343395233154,0.9628141075372696,93.04932403564452,0.8765070992521942,89.91218566894531,L,False,True,0,L,50,,0.229,LeftResponse,correct,True,4.0
12,22,304.28066666666666,5907,304.218,304.224,304.229,0.7818643290078114,96.59988307225832,-0.7773573696613312,-96.44338989257812,-0.7264279127120972,-86.93317413330078,0.0838292837142944,5.496358394622803,0.2184569835662841,11.59273910522461,L,False,True,0,L,50,,0.234,RightResponse,incorrect,True,3.0
13,23,307.93966666666665,3378,307.877,307.882,307.887,0.4566642824830466,49.635508399403015,-0.309970386326313,-38.52689743041992,-0.1905240416526794,-27.50532341003418,0.3353514969348907,31.294757843017575,0.3963441699743271,35.54620742797852,L,False,True,0,R,50,,0.347,LeftResponse,incorrect,True,6.0
14,24,313.83166666666665,5927,313.719,313.726,313.731,0.6705003614375156,72.6588486736817,-0.5791608095169067,-65.63028717041016,-0.3683239817619324,-42.21198654174805,0.3378512859344482,31.17649269104004,0.0406468510627746,9.95378303527832,L,False,True,0,L,100,,0.348,RightResponse,incorrect,True,3.0
15,25,318.59766666666667,3416,318.387,318.392,318.396,0.9817573825759486,107.51271142304178,-0.9323914288543164,-102.80119323730467,-0.6983741521835327,-83.27379608154297,0.3073984086513519,31.47852897644043,0.3175327777862549,35.3560791015625,L,False,True,0,R,200,,0.201,RightResponse,correct,True,3.0
16,26,322.4906666666667,5941,322.429,322.435,322.441,0.7924659848938793,94.70628539037496,-0.7901165410876274,-94.69401550292967,-0.650236964225769,-76.59220123291016,-0.0609769523143768,1.5244410037994385,-0.0940060913562774,-1.1548683643341064,L,False,True,0,R,50,,0.263,LeftResponse,incorrect,True,9.0
17,29,341.57166666666666,5968,341.359,341.366,341.371,1.0325229454332037,118.37943190568498,-1.02645343542099,-116.85079193115234,-0.6932938098907471,-80.06022644042969,-0.1117898821830749,-18.962656021118164,-0.1727724373340606,-23.906368255615234,L,False,True,0,R,200,,0.298,LeftResponse,incorrect,True,2.0
18,30,346.20166666666665,3464,345.786,345.796,345.801,0.5865841636254878,46.10303879857703,-0.1321164667606353,-15.84458351135254,0.0076205134391784,-22.2166805267334,0.5715122222900391,43.29479598999024,0.6782598495483398,47.52425003051758,L,False,True,0,R,400,,0.248,RightResponse,correct,True,8.0
19,33,363.0796666666667,658,362.668,362.674,362.68,0.584010422172767,62.97330599602996,0.5716740787029266,62.387657165527344,0.6096583604812622,65.02995300292969,0.1194023489952087,8.568401336669922,0.0127038955688476,1.9864287376403809,L,False,True,0,R,400,,0.338,RightResponse,correct,True,7.0
20,34,366.30266666666665,6014,366.089,366.095,366.1,0.5977256777267184,67.72805049433843,-0.5894559919834137,-67.0529556274414,-0.3301679491996765,-43.10551071166992,-0.0990839004516601,-9.53886604309082,-0.1981760114431381,-26.169620513916016,L,False,True,0,L,200,,0.31,LeftResponse,correct,True,5.0
21,35,369.08366666666666,6017,369.07,369.076,369.081,0.5846122763766862,57.96450413554727,-0.5106960982084274,-53.518104553222656,-0.352989912033081,-38.92398834228516,0.2845364809036255,22.264236450195312,0.152446910738945,5.682095527648926,L,False,True,0,L,0,,0.242,RightResponse,incorrect,True,9.0
22,36,372.39366666666666,3499,372.181,372.187,372.194,0.6475627937561236,56.5765958793711,-0.2032593786716461,-1.986406683921814,-0.0101593732833862,19.166105270385746,0.6148359104990959,56.54171371459961,0.5132365673780441,47.07368850708008,L,False,True,0,L,200,,0.332,LeftResponse,correct,True,4.0
23,39,391.79066666666665,3511,391.682,391.686,391.696,0.7520512001991021,73.8914634839738,0.2845401167869568,50.900875091552734,0.2539591789245605,65.9215316772461,0.6961450492963195,53.563507080078125,0.8688822789117694,71.87835693359375,L,False,True,0,L,100,,0.216,LeftResponse,correct,True,6.0
24,41,519.5026666666666,6214,519.488,519.495,519.5,0.5363396182730602,52.58349627195639,-0.482737947255373,-48.78183364868164,-0.2895970344543457,-32.86347198486328,0.2337183356285095,19.63050651550293,0.1295802677050233,5.104681491851807,L,False,True,1,L,0,,0.378,LeftResponse,correct,True,12.0
25,42,523.8236666666667,866,523.763,523.768,523.771,0.333085846220999,40.40274340986431,0.3099630922079086,37.41727828979492,0.518254965543747,56.55962753295898,0.1219387650489807,15.24234104156494,0.3073956966400146,36.16706085205078,L,False,True,1,R,50,,0.374,RightResponse,correct,True,12.0
26,43,530.5856666666667,6232,530.374,530.38,530.385,0.5939781721822687,62.08526156240866,-0.5868933796882629,-61.4146614074707,-0.4878292232751846,-58.437896728515625,-0.0914670974016189,-9.10049819946289,0.0584367215633392,7.114043235778809,L,False,True,1,R,200,,0.256,RightResponse,correct,True,3.0
27,44,533.7366666666667,6239,533.326,533.332,533.336,0.3737381078201272,38.04043010814246,-0.3709295094013214,-37.69326400756836,-0.2007225230336189,-24.368507385253903,0.0457326173782348,5.127589225769043,0.1422844417393207,13.096639633178713,L,False,True,1,R,400,,0.332,RightResponse,correct,True,6.0
28,45,536.6556666666667,6248,536.645,536.65,536.655,0.5497079920854747,61.44140283783626,-0.541162759065628,-60.60660934448242,-0.3328412529081106,-39.705352783203125,-0.0965491831302642,-10.093804359436035,-0.0584360659122467,-8.107148170471191,L,False,True,1,L,0,,0.273,RightResponse,incorrect,True,11.0
29,46,544.0996666666666,6256,544.037,544.043,544.049,1.0045870083971926,111.85941620087031,-1.0035454481840134,-111.85681915283205,-0.4979843972250819,-56.2890625,0.0457339137792587,0.7622347474098206,0.1931002214550972,9.146836280822754,L,False,True,1,R,50,,0.201,RightResponse,correct,True,11.0
30,47,550.3276666666667,6265,550.264,550.272,550.278,1.0388699584063084,108.33463715108516,-1.0085922160651537,-107.5569839477539,-0.5056117400527,-57.67530059814453,0.2489829957485199,12.957191467285156,0.137201577425003,13.766386985778809,L,False,True,1,R,50,,0.36,RightResponse,correct,True,10.0
31,48,557.3266666666667,6275,556.914,556.92,556.924,0.5192208015637502,58.91348838418648,-0.5081379786133766,-55.918155670166016,-0.4014326184988022,-46.00983428955078,0.106705367565155,18.546131134033203,0.3175936564803123,29.81919288635254,L,False,True,1,R,400,,0.206,RightResponse,correct,True,5.0
32,49,560.0166666666667,6280,559.954,559.96,559.965,0.5017689836521149,60.42256495088078,-0.5005067735910416,-60.42079925537109,-0.2972638458013534,-36.86336135864258,0.0355679988861084,-0.4619227051734924,0.2362934499979019,15.15234088897705,L,False,True,1,L,50,,0.241,RightResponse,incorrect,True,9.0
33,50,565.6326666666666,6286,565.562,565.567,565.572,0.3846183490950649,45.37287546382945,-0.3709489777684212,-45.06353378295898,-0.1803810000419616,-21.84890937805176,0.1016274094581604,5.289210796356201,0.0762176513671875,0.7159904837608337,L,False,True,1,L,50,,0.365,LeftResponse,correct,True,12.0
34,51,570.7286666666666,6296,570.316,570.323,570.328,0.6362287920967036,60.038393810697954,-0.5664838552474976,-53.437408447265625,-0.4166784361004829,-49.544044494628906,0.2896258234977722,27.368816375732425,0.3023516577668488,30.90505027770996,L,False,True,1,R,400,,0.201,RightResponse,correct,True,4.0
35,52,574.0466666666666,6303,573.935,573.941,573.946,0.3898278636585613,40.28111096566281,-0.3861605823040008,-39.93245315551758,-0.4166659414768219,-46.97908401489258,0.0533457398414611,5.288391590118408,0.1270378530025482,2.586958169937134,L,False,True,1,L,100,,0.343,RightResponse,incorrect,True,5.0
36,53,577.0696666666666,945,577.061,577.066,577.071,0.3483195317214831,42.500475247711,0.3480878323316574,42.500450134277344,0.6478703357279301,70.28437805175781,0.0127026438713073,0.0462024360895156,-0.0228659510612487,-2.402071237564087,L,False,True,1,R,0,,0.339,LeftResponse,incorrect,True,14.0
37,54,585.0216666666666,6312,584.95,584.954,584.959,0.3988622725009918,44.19610886927115,-0.3988622725009918,-43.78956985473633,-0.2058035968802869,-23.46761703491211,0.0,-5.980770111083984,0.1829355210065841,19.86417961120605,L,False,True,1,R,50,,0.293,RightResponse,correct,False,11.0
38,55,592.8906666666667,3759,592.48,592.485,592.491,0.671828136425171,71.72587973836168,-0.5081165134906769,-64.41506958007812,-0.3633138239383697,-63.60691452026367,0.4395118355751037,31.548385620117188,0.4852852150797844,41.22990036010742,L,False,True,1,R,400,,0.32,RightResponse,correct,True,3.0
39,56,595.9256666666666,6334,595.715,595.719,595.723,0.3936373104199371,46.92959700019632,-0.3607564270496368,-43.74361801147461,-0.3074283450841903,-35.57009506225586,0.1574964523315429,16.996557235717773,0.2718593552708626,27.647876739501957,L,False,True,1,R,200,,0.395,LeftResponse,incorrect,True,2.0
40,57,599.3516666666667,974,598.941,598.947,598.953,0.9325718240006824,104.15778198940902,0.9095855057239532,102.53087615966795,1.028867408633232,110.64826202392578,0.2057775855064392,18.337474822998047,0.0279473364353179,-2.84094500541687,L,False,True,1,L,400,,0.206,RightResponse,incorrect,True,2.0
41,58,607.3666666666667,6352,607.152,607.16,607.166,1.242457913709447,127.02930707069906,-1.2192946523427963,-122.46014404296876,-1.0413581132888794,-121.08489990234376,0.2387932538986206,33.76326370239258,0.2362918891012668,20.857534408569336,L,False,True,1,L,200,,0.356,LeftResponse,correct,True,5.0
42,59,614.8686666666666,3777,614.757,614.762,614.765,0.4024110483666103,49.44813211600459,0.2845677994191646,37.90383529663086,0.2947188913822174,36.70130920410156,0.2845273613929748,31.75558280944824,0.4700305908918381,42.84527587890625,L,False,True,1,R,100,,0.271,RightResponse,correct,True,8.0
43,60,618.6746666666667,6368,618.563,618.566,618.57,0.231001489897844,27.741468011301134,-0.2007218534126877,-24.04503631591797,-0.2591332495212555,-29.77032470703125,0.1143347099423408,13.835652351379396,0.2438802123069763,26.12022590637207,L,False,True,1,L,100,,0.266,LeftResponse,correct,True,7.0
44,61,625.8936666666667,6370,625.481,625.487,625.492,0.6688052813335331,68.79889392837224,-0.6580585241317749,-66.36044311523438,-0.4724993109703064,-53.877628326416016,0.1194130778312683,18.154321670532227,0.2464426755905151,24.621395111083984,L,False,True,1,L,400,,0.363,RightResponse,incorrect,True,5.0
45,62,629.1826666666667,6379,628.769,628.775,628.78,0.4754583563055669,54.6208611673062,-0.4751256555318832,-54.53442001342773,-0.4038989543914795,-45.65507125854492,0.0177837014198303,-3.0717272758483887,0.0076222419738769,-5.243177890777588,L,False,True,1,L,400,,0.287,RightResponse,incorrect,True,8.0
46,65,647.3096666666667,1028,647.247,647.254,647.261,0.9705291719756218,104.75207774630807,0.9500816762447356,103.87699127197266,1.1102903485298157,107.33492279052734,0.1981708407402038,13.51179027557373,0.2921718657016754,16.560392379760742,L,False,True,1,L,50,,0.398,LeftResponse,correct,True,11.0
47,66,650.4536666666667,6410,650.341,650.346,650.351,0.5307787958744238,65.33457323305976,-0.5183183550834656,-65.15939331054688,-0.370900809764862,-45.12742614746094,0.1143337786197662,4.781205177307129,0.1600683182477951,10.76364803314209,L,False,True,1,R,100,,0.32,RightResponse,correct,True,6.0
48,68,661.7526666666666,6430,661.73,661.735,661.74,0.3777106363261612,43.40508451177316,-0.3709508776664734,-42.54618835449219,-0.2286488711833953,-22.1490421295166,0.0711390972137451,8.59204387664795,0.1549873128533363,12.9118013381958,L,False,True,1,R,0,,0.342,RightResponse,correct,True,17.0
49,69,666.5156666666667,6434,666.402,666.408,666.413,0.5207070465377361,56.90545324834098,-0.510695070028305,-56.40519714355469,-0.3023220300674438,-39.77034378051758,0.1016187667846679,7.528900623321533,0.0813048407435417,1.177993893623352,L,False,True,1,L,100,,0.344,RightResponse,incorrect,True,5.0
50,70,670.1716666666666,6444,669.958,669.964,669.97,0.7294123733436589,74.42190556090722,-0.6758324056863785,-68.89982604980469,-0.6985478401184082,-76.22724914550781,0.2743956446647644,28.132436752319336,0.2286544740200042,18.45417213439941,L,False,True,1,L,200,,0.383,LeftResponse,correct,True,4.0
51,72,683.4936666666666,6460,683.373,683.378,683.383,0.5339466414528766,56.653611119019246,-0.5310131963342428,-56.4273681640625,-0.2845383584499359,-29.40073776245117,0.0558927655220031,5.058040618896484,0.259144127368927,18.823877334594727,L,False,True,1,R,100,,0.335,RightResponse,correct,True,8.0
52,73,686.1046666666667,6464,686.043,686.048,686.054,0.5659997997031178,65.65974372498592,-0.5615111589431763,-65.59825134277344,-0.4064802229404449,-52.19524383544922,-0.0711406469345092,-2.841015100479126,-0.1575166583061218,-15.54394817352295,L,False,True,1,L,50,,0.269,RightResponse,incorrect,True,10.0
53,74,693.1946666666666,6469,692.985,692.992,692.997,0.907811658596192,102.7345115288859,-0.8104328066110611,-92.33560943603516,-0.7443653494119644,-81.54814147949219,0.4090484976768493,45.039039611816406,0.4243097752332687,41.87678527832031,L,False,True,1,R,200,,0.356,LeftResponse,incorrect,True,3.0
54,75,696.9336666666667,1102,696.525,696.532,696.539,0.913168849169274,94.48098931505146,0.8561635985970497,90.5131378173828,1.077259600162506,97.65618133544922,0.3175865858793258,27.092973709106445,0.2946818470954895,26.673479080200195,L,False,True,1,L,400,,0.265,RightResponse,incorrect,True,11.0
55,76,700.4136666666667,6489,700.399,700.406,700.411,0.6328337591129755,67.10942049661575,-0.6326501220464706,-66.63740539550781,-0.4649208486080169,-52.24300384521485,0.0152443349361419,7.94547176361084,0.2235562205314636,25.54272079467773,L,False,True,1,R,0,,0.233,RightResponse,correct,True,16.0
56,77,703.7696666666667,6493,703.556,703.562,703.567,0.5311742064478785,56.66896555155363,-0.515759564936161,-55.66403198242188,-0.355683833360672,-41.18043899536133,0.1270358562469482,10.624838829040527,0.0406482815742492,4.0648722648620605,L,False,True,1,R,200,,0.397,RightResponse,correct,True,6.0
57,78,707.9706666666667,6501,707.757,707.766,707.772,1.4183828212390113,138.60164360983362,-1.412451833486557,-138.58773803710938,-1.2343151271343231,-137.81094360351562,0.1295748651027679,1.9632822275161743,0.2261027693748474,20.5316104888916,L,False,True,1,L,200,,0.323,RightResponse,incorrect,True,5.0
58,79,715.0486666666667,6507,714.934,714.941,714.947,0.7674011476811942,80.60925084487009,-0.7647679448127747,-80.218994140625,-0.5868115127086639,-66.55624389648438,-0.0635178089141845,-7.92239236831665,0.0533473491668701,12.794419288635254,L,False,True,1,R,100,,0.245,RightResponse,correct,True,7.0
59,80,882.6246666666667,6599,882.412,882.419,882.425,0.74160559239492,78.5775737361571,-0.7012298032641411,-75.13465881347656,-0.3506186902523041,-41.43674087524414,0.2413620054721832,23.00474166870117,0.4039634764194488,40.74333190917969,L,False,True,2,R,200,,0.26,LeftResponse,incorrect,True,8.0
60,81,889.4566666666667,6604,889.241,889.248,889.254,0.9277996141788636,94.80779601180517,-0.7876262366771698,-81.3497543334961,-0.4217687919735908,-57.16743850708008,0.4903641864657402,48.69020080566406,0.7799967974424362,72.22664642333984,L,False,True,2,L,200,,0.351,RightResponse,incorrect,True,11.0
61,82,893.7786666666667,6615,893.765,893.771,893.776,0.5199781114391432,56.45211584375747,-0.5157652720808983,-56.28841781616211,-0.3988994173705578,-47.16579818725586,0.0660561919212341,4.295975208282471,0.07114222436212,4.388645648956299,L,False,True,2,L,0,,0.224,RightResponse,incorrect,True,15.0
62,83,900.2686666666667,6620,900.207,900.215,900.221,1.0317646315066091,109.42517920838291,-1.0313140749931335,-108.5352020263672,-0.9908120313193648,-117.67510223388672,0.0304882526397705,13.927661895751951,0.2667747288942337,28.20195960998535,L,False,True,2,L,50,,0.332,LeftResponse,correct,True,13.0
63,84,904.2076666666667,4009,904.095,904.101,904.105,0.6627587202162677,71.07142956701884,-0.6021251678466797,-66.61028289794922,-0.312511034309864,-38.52675628662109,0.2769375443458557,24.783428192138672,0.0838446170091629,13.44285774230957,L,False,True,2,L,100,,0.381,RightResponse,incorrect,True,6.0
64,85,910.2156666666667,6637,910.103,910.111,910.117,1.172290493774553,120.73543884585894,-1.1482362672686577,-118.77186584472656,-1.3895613551139832,-154.24264526367188,0.2362593412399292,21.68617248535156,0.2083187103271484,22.86453056335449,L,False,True,2,L,100,,0.365,RightResponse,incorrect,True,9.0
65,86,914.6656666666667,6649,914.25,914.254,914.259,0.3818327560763602,44.106980007280114,-0.3658731877803802,-42.03847885131836,-0.226111888885498,-25.590770721435547,0.1092385649681091,13.348856925964355,0.0508134067058563,1.1548497676849363,L,False,True,2,L,400,,0.215,RightResponse,incorrect,True,14.0
66,88,920.4406666666666,6666,920.378,920.386,920.394,1.366830729936589,127.1075386254794,-1.3642579466104507,-127.0981216430664,-1.7072641849517822,-162.53125,0.0838242173194885,1.547207236289978,0.0584293603897094,-23.741962432861328,L,False,True,2,L,50,,0.214,LeftResponse,correct,True,12.0
67,89,927.1016666666667,6676,927.092,927.098,927.103,0.7342195702757515,81.4272948228229,-0.7062629759311676,-78.77877807617188,-0.5970468670129776,-65.96360778808594,0.2006763219833374,20.5987491607666,0.3480858169496059,40.60628128051758,L,False,True,2,R,0,,0.293,RightResponse,correct,True,18.0
68,90,929.9286666666667,6687,929.864,929.871,929.876,0.7421909829369976,75.31696132981861,-0.7418386787176132,-75.2919692993164,-0.6655356884002686,-74.72813415527344,0.0228654742240905,-1.9401090145111084,0.1549709439277649,14.781231880187988,L,False,True,2,R,50,,0.352,RightResponse,correct,True,11.0
69,91,933.0806666666667,6693,932.669,932.673,932.678,0.3506376989773755,44.209677054857735,-0.3506284952163696,-44.20967102050781,-0.3074269592761993,-39.05759811401367,-0.0025405287742614,-0.0230987723916769,-0.096537172794342,-16.2590389251709,L,False,True,2,R,400,,0.345,RightResponse,correct,True,16.0
70,92,938.8216666666667,6696,938.809,938.816,938.822,0.9901290465737558,112.01284834370352,-0.9753875732421876,-110.00563049316406,-0.8788403272628784,-109.09942626953124,0.1702193021774292,21.11017417907715,0.2261275127530098,21.80439758300781,L,False,True,2,L,0,,0.272,RightResponse,incorrect,True,17.0
71,93,941.5986666666666,1326,941.585,941.59,941.594,0.4226186195252499,47.031569942522566,0.3125036209821701,35.31554412841797,0.4903084635734558,50.43994903564453,-0.2845135927200317,-31.060922622680664,-0.1752544045448303,-18.725971221923828,L,False,True,2,R,0,,0.217,RightResponse,correct,True,20.0
72,94,946.7326666666667,6709,946.72,946.725,946.731,0.8046151050718944,91.2629019579089,-0.7266576290130615,-84.07628631591797,-0.6122829914093018,-66.51766204833984,0.3455056548118591,35.49782180786133,0.1651367843151092,12.125608444213867,L,False,True,2,R,0,,0.235,RightResponse,correct,True,19.0
73,95,950.2546666666667,6718,950.142,950.149,950.155,0.8325125354317607,88.29713333973207,-0.8282808661460876,-88.1638412475586,-0.665579617023468,-74.91706848144531,0.0838327407836914,4.849830150604248,0.1498998701572418,11.825709342956545,L,False,True,2,L,100,,0.234,LeftResponse,correct,True,12.0
74,96,958.6146666666667,6725,958.2,958.207,958.212,0.5738883370161993,60.35158348829506,-0.4954507946968078,-55.36589431762695,-0.2820040583610534,-35.24464797973633,0.2896141111850738,24.01939582824707,0.2820051908493042,30.23345184326172,L,False,True,2,L,400,,0.31,RightResponse,incorrect,True,15.0
75,97,961.2746666666667,1352,961.265,961.27,961.274,0.3355371192659929,38.020707167043405,0.2744051739573478,32.68378829956055,0.4141330420970917,42.68388366699219,0.1930983141064643,19.42534828186035,0.3480197191238403,36.37236404418945,L,False,True,2,R,0,,0.303,RightResponse,correct,True,18.0
76,99,972.2706666666667,1365,972.212,972.218,972.223,0.5584096415503871,57.000138828759496,0.531012637540698,53.401363372802734,0.7697681784629822,77.50951385498047,0.1727625727653503,19.932641983032227,0.3759926557540893,26.467308044433597,L,False,True,2,R,50,,0.334,RightResponse,correct,True,10.0
77,100,978.2116666666667,6752,978.096,978.102,978.107,0.523701908277956,60.83601169052776,-0.5233998745679855,-60.79389190673828,-0.2870822846889496,-35.47505187988281,0.0177837014198303,-2.2634100914001465,0.0609749555587768,1.9863066673278809,L,False,True,2,R,100,,0.379,RightResponse,correct,True,11.0
78,101,981.0716666666667,6759,980.655,980.663,980.668,0.7347143082815529,72.65529942682102,-0.6250269711017609,-61.07100677490234,-0.6655451357364655,-75.46763610839844,0.3861947697587311,39.35892105102539,0.3099281191825866,33.649810791015625,L,False,True,2,L,400,,0.203,LeftResponse,correct,True,18.0
79,103,996.0806666666667,6776,995.97,995.976,995.981,0.3504430270080823,39.1580269684633,-0.3353833854198456,-38.52754592895508,-0.2667304277420044,-31.568628311157227,0.1016282439231872,6.9985198974609375,0.2184341549873352,21.49752616882324,L,False,True,2,R,100,,0.363,RightResponse,correct,True,10.0
80,104,999.2576666666666,6786,999.046,999.052,999.058,0.6576875344774258,69.28866643656838,-0.6529543800279498,-69.1524658203125,-0.4623342156410217,-49.30440902709961,0.0787621140480041,4.342322826385498,0.1041550040245056,6.974446296691895,L,False,True,2,L,200,,0.356,RightResponse,incorrect,True,14.0
81,105,1004.5826666666667,6790,1004.519,1004.524,1004.529,0.4420991864583625,50.80101878448188,-0.4090660214424133,-48.713748931884766,-0.2210353314876556,-29.956409454345703,0.1676802933216095,14.41229248046875,0.0533463954925537,9.79184627532959,L,False,True,2,L,50,,0.233,RightResponse,incorrect,True,9.0
82,106,1007.3926666666666,4128,1007.322,1007.326,1007.336,0.466902585026457,52.770628285477706,-0.0940093141980469,-34.11582565307617,0.1371845006942749,-9.953468322753906,0.4573404341936111,40.2597770690918,0.5995022058486938,65.44688415527344,L,False,True,2,R,50,,0.298,RightResponse,correct,True,12.0
83,107,1010.5156666666667,6805,1010.505,1010.51,1010.516,0.5604072934535181,55.81194563988943,-0.5081556737422943,-52.894493103027344,-0.3353433907032013,-37.11462020874024,0.2362925005145371,17.808589935302734,0.3276975154876709,30.737937927246094,L,False,True,2,L,0,,0.215,LeftResponse,correct,True,17.0
84,109,1021.6026666666667,6827,1021.388,1021.394,1021.399,0.3872081020768491,40.575802009395495,-0.3785763755440712,-39.52074432373047,-0.3048532009124756,-32.910099029541016,0.0813021659851074,9.192740440368652,0.1219357848167419,12.032024383544922,L,False,True,2,L,200,,0.392,LeftResponse,correct,True,17.0
85,110,1025.4456666666665,6836,1025.031,1025.037,1025.042,0.4621664961575967,53.77632124688574,-0.4471455514431,-52.42852783203125,-0.3429474234580993,-33.69386291503906,0.1168705523014068,11.964204788208008,0.2133851051330566,18.890640258789062,L,False,True,2,R,400,,0.336,RightResponse,correct,True,17.0
86,111,1028.7266666666665,6848,1028.513,1028.518,1028.524,0.6663695879430478,69.4695701288935,-0.665671780705452,-69.3624038696289,-0.6249350309371948,-63.02521896362305,0.030487835407257,-3.8572144508361816,0.1702004671096801,16.512374877929688,L,False,True,2,R,200,,0.321,RightResponse,correct,True,16.0
87,112,1031.3736666666666,4166,1031.254,1031.257,1031.267,0.4554732369200305,42.830561138757446,0.1194163411855697,35.27070617675781,0.035568356513977,31.273286819458008,0.439540222287178,24.298852920532227,0.5131114721298218,35.79527282714844,L,False,True,2,L,100,,0.264,RightResponse,incorrect,True,9.0
88,113,1035.1336666666666,6864,1035.073,1035.077,1035.082,0.3059493629943785,37.93019972281176,-0.3048926549963653,-37.926795959472656,-0.2947219312191009,-29.37993812561035,0.0254063308238983,0.5081331133842468,-0.0660376548767089,-8.10464859008789,L,False,True,2,R,50,,0.325,RightResponse,correct,True,11.0
89,114,1038.7936666666665,4179,1038.685,1038.69,1038.695,1.0554909738772922,113.44660857847876,-0.9425361938774586,-102.01387786865234,-0.9526678621768953,-95.8441162109375,0.4750649631023407,49.63166046142578,0.4597992300987243,40.645484924316406,L,False,True,2,R,100,,0.383,RightResponse,correct,True,12.0
90,117,1054.4516666666666,1500,1054.242,1054.244,1054.246,0.1769149233478174,24.245352029018157,0.1448252238333225,17.924142837524414,0.1981762051582336,29.21814346313477,0.1016097664833068,16.326732635498047,0.1193712949752807,15.354168891906738,L,False,True,2,R,200,,0.293,RightResponse,correct,True,15.0
91,118,1057.1956666666665,1505,1057.135,1057.142,1057.148,0.7423361914200033,84.16829819936113,0.7419013381004333,84.02976989746094,1.0772272944450378,110.6123275756836,-0.0254052281379699,-4.827027320861816,0.1193833351135253,1.4778313636779783,L,False,True,2,L,50,,0.25,LeftResponse,correct,True,10.0
92,119,1064.6806666666666,6927,1064.669,1064.677,1064.683,1.4676120272051618,151.7128879676712,-1.4480481296777723,-149.88685607910156,-1.3488490879535675,-141.1446990966797,0.2388339936733245,23.467653274536133,0.3302395939826965,33.74032211303711,L,False,True,2,L,0,,0.368,RightResponse,incorrect,True,16.0
93,120,1162.4666666666665,7150,1162.255,1162.258,1162.264,0.2582335805341406,26.08134494634171,-0.236292116343975,-23.86024284362793,-0.177833616733551,-21.29382705688477,0.1041662991046905,10.532111167907717,0.325220838189125,36.44877624511719,L,False,True,3,R,200,,0.254,RightResponse,correct,True,14.0
94,121,1165.8306666666665,7159,1165.42,1165.425,1165.431,0.9384130496004072,104.031926610008,-0.8917711600661278,-102.71285247802734,-0.6528486013412476,-70.06483459472656,0.2921698987483978,16.51398468017578,0.1930839419364929,19.74721336364746,L,False,True,3,L,400,,0.264,LeftResponse,correct,True,15.0
95,122,1169.0486666666666,7161,1169.025,1169.03,1169.035,0.4081245955432888,49.19871011280897,-0.3861472606658935,-45.08124923706055,-0.1549876779317855,-19.93358993530273,-0.1321210754103958,-19.702640533447266,-0.2058009207248687,-25.24585723876953,L,False,True,3,R,0,,0.35,RightResponse,correct,True,19.0
96,123,1175.0606666666665,7166,1174.95,1174.953,1174.957,0.2281448166271557,27.90357142410514,-0.2260984182357788,-27.898513793945312,-0.1803958010859787,-23.421396255493164,0.0304887294769287,-0.5312497615814209,0.1346620693802833,10.994706153869627,L,False,True,3,R,100,,0.35,RightResponse,correct,True,11.0
97,124,1177.9796666666666,7175,1177.911,1177.915,1177.918,0.2268181362926004,28.18080241790956,-0.2261199653148651,-28.10908508300781,-0.1168607473373413,-15.011707305908203,0.0177828073501586,2.00921893119812,0.1041678488254547,16.167957305908203,L,False,True,3,R,50,,0.21,RightResponse,correct,True,9.0
98,127,1198.1136666666666,7190,1198.098,1198.103,1198.109,0.4564979135192965,51.82301099175002,-0.449652224779129,-51.61671829223633,-0.3633262254297733,-45.71002197265625,0.0787605345249176,4.619400501251221,0.0889134407043457,-1.6397076845169067,L,False,True,3,R,0,,0.307,RightResponse,correct,True,18.0
99,129,1209.3296666666665,7204,1209.265,1209.271,1209.275,0.5192670413196142,58.744051204336046,-0.4649525359272957,-52.59281539916992,-0.307415097951889,-28.708646774291992,0.2312085628509521,26.169816970825195,0.1371987015008926,14.227999687194824,L,False,True,3,L,50,,0.339,RightResponse,incorrect,True,8.0
100,131,1220.6666666666665,7220,1220.253,1220.259,1220.264,0.4193775692592237,45.53892449744285,-0.4141421061940491,-44.46317672729492,-0.2768693566322326,-31.98188018798828,0.0660595297813415,9.839693069458008,0.1600694693624973,12.034114837646484,L,False,True,3,L,400,,0.32,RightResponse,incorrect,True,14.0
101,133,1232.0076666666666,7230,1231.895,1231.9,1231.905,0.3634021974475289,39.50311990509351,-0.3633222728967666,-39.49663162231445,-0.360653817653656,-41.537845611572266,0.0076212286949157,0.715941846370697,-0.0381116718053817,-11.549005508422852,L,False,True,3,R,100,,0.337,RightResponse,correct,True,10.0
102,134,1235.0056666666665,7235,1234.943,1234.948,1234.953,0.4427167779668615,51.58122035069169,-0.4065254777669906,-48.55209732055664,-0.2717753052711487,-34.75171661376953,0.1753145214170217,17.415973663330078,0.2032590508460998,22.150745391845703,L,False,True,3,R,50,,0.387,RightResponse,correct,True,11.0
103,136,1245.8546666666666,4513,1245.645,1245.65,1245.658,0.5633119804525856,48.29946220006285,-0.1270380020141601,1.5706288814544678,-0.1879236698150634,-2.8862569332122803,0.5488002672791481,48.27391815185547,0.4293874036520719,40.09749984741211,L,False,True,3,R,200,,0.256,RightResponse,correct,True,13.0
104,139,1260.9226666666666,7258,1260.908,1260.913,1260.919,0.4738124216282424,41.96866248331976,-0.4242943227291107,-39.84242248535156,-0.2717295885086059,-32.759334564208984,0.210885131265968,13.189010620117188,0.1346589922904968,6.652150630950928,L,False,True,3,L,0,,0.339,RightResponse,incorrect,True,17.0
105,140,1268.5416666666665,7263,1268.43,1268.435,1268.44,0.6359811044395505,79.83148890507334,-0.6148414388298988,-78.27574920654297,-0.3224928379058838,-34.488338470458984,0.1626098714768886,15.683548927307127,0.1397422477602958,7.160376071929932,L,False,True,3,L,100,,0.239,LeftResponse,correct,True,9.0
106,143,1282.6216666666667,7283,1282.556,1282.563,1282.568,0.650105910715458,65.175118245955,-0.6300917267799377,-62.98701858520508,-0.4317026138305664,-42.47623825073242,0.1600690819323063,16.746089935302734,0.200718268752098,13.81238079071045,L,False,True,3,L,50,,0.311,LeftResponse,correct,True,10.0
107,144,1290.4986666666666,7291,1290.091,1290.097,1290.103,1.0767437593276554,125.13324040747403,-1.0391563773155212,-122.9483413696289,-1.0685347318649292,-111.207275390625,0.2820126712322235,23.281606674194336,0.2032633647322654,22.497529983520508,L,False,True,3,R,400,,0.289,RightResponse,correct,True,19.0
108,145,1293.3006666666665,7297,1293.089,1293.095,1293.101,0.7253887354444728,75.99030391741607,-0.7241016924381256,-75.96726989746094,-0.5281776189804077,-51.66373443603516,0.0431920886039733,-1.8708804845809937,0.1143350750207901,14.043546676635742,L,False,True,3,L,200,,0.231,LeftResponse,correct,True,12.0
109,146,1298.2516666666666,7303,1298.036,1298.043,1298.049,0.8587246695582541,84.99667593866714,-0.8587209107354283,-84.9958724975586,-0.6880296468734741,-75.95814514160156,-0.0025407820940017,-0.3695659637451172,0.0203263387084007,-0.1154898032546043,L,False,True,3,L,200,,0.363,RightResponse,incorrect,True,11.0
110,147,1305.7956666666666,7308,1305.781,1305.787,1305.793,0.5641533910567839,66.15310983166718,-0.530995786190033,-65.36417388916016,-0.5179144144058228,-58.115116119384766,0.1905584521591663,10.186202049255373,0.2566169947385788,13.650983810424805,L,False,True,3,L,0,,0.35,RightResponse,incorrect,True,20.0
111,148,1310.7456666666665,7316,1310.631,1310.638,1310.643,0.6192461610932263,65.22026546077531,-0.536084458231926,-54.3942756652832,-0.3174502849578857,-49.01377487182617,0.3099665492773056,35.985355377197266,0.0025407932698726,3.303032875061035,L,False,True,3,L,100,,0.28,RightResponse,incorrect,True,8.0
112,149,1313.5936666666666,7322,1313.581,1313.588,1313.594,0.8308274236421364,82.43260793300729,-0.7698127115145326,-75.34297943115234,-0.621982216835022,-69.78761291503906,-0.3125101551413536,-33.44503402709961,-0.2998130321502685,-37.90394592285156,L,False,True,3,L,0,,0.278,RightResponse,incorrect,True,23.0
113,152,1328.7316666666666,7336,1328.522,1328.528,1328.533,0.9999556889808028,111.71234742765664,-0.9908471703529358,-111.30430603027344,-0.7842814922332764,-86.89131927490234,-0.1346598118543625,-9.539393424987791,-0.076221764087677,-10.370779037475586,L,False,True,3,L,200,,0.372,LeftResponse,correct,True,14.0
114,153,1336.8126666666665,7352,1336.751,1336.757,1336.762,0.8252119460127708,98.88426740316254,-0.6935522854328156,-87.6249008178711,-0.79228276014328,-89.58842468261719,0.4471688531339168,45.82548522949219,0.3125137630850076,29.449779510498047,L,False,True,3,R,50,,0.392,RightResponse,correct,True,9.0
115,154,1339.7896666666666,7359,1339.577,1339.584,1339.59,0.8074043520999266,83.66161293230887,-0.7672224640846252,-77.76236724853516,-0.6447926759719849,-68.24034881591797,-0.2515382245182991,-30.85902976989746,-0.0889250934123992,-10.671050071716309,L,False,True,3,R,200,,0.242,RightResponse,correct,True,13.0
116,156,1351.6756666666665,7372,1351.661,1351.67,1351.675,0.7424128701122495,76.70840683596201,-0.7367571294307709,-75.80216217041016,-0.4796804189682007,-48.66023635864258,0.0914647579193115,11.756355285644531,0.1168741881847381,9.077417373657228,L,False,True,3,R,0,,0.307,LeftResponse,incorrect,True,26.0
117,157,1355.4186666666665,7378,1355.199,1355.204,1355.207,0.2826049260596498,35.98442911382707,-0.2616842687129974,-32.68169021606445,-0.2234449386596679,-21.697864532470703,0.1067093610763549,15.05942440032959,0.0609785169363021,3.072003126144409,L,False,True,3,L,200,,0.26,LeftResponse,correct,True,12.0
118,158,1360.0856666666666,7383,1360.021,1360.026,1360.032,0.4469709470284894,53.656119345389946,-0.4369756579399109,-53.65193939208984,-0.3630707263946533,-38.107872009277344,0.0939962863922119,-0.6697332859039307,0.08384595438838,9.169886589050291,L,False,True,3,L,50,,0.316,RightResponse,incorrect,True,8.0
119,159,1364.2446666666665,7391,1364.231,1364.239,1364.245,1.1458694065263544,116.20862336967798,-1.1458581387996674,-115.99628448486328,-1.1168259382247925,-123.65428161621094,0.0050815902650356,7.021832466125488,0.1676922999322414,12.865646362304688,L,False,True,3,R,0,,0.239,RightResponse,correct,True,29.0
120,161,1438.9566666666665,7541,1438.543,1438.548,1438.553,0.5471477804763866,65.05412256238162,-0.5208371058106422,-62.43094253540039,-0.4115929007530212,-54.48590850830078,0.1676287651062011,18.287052154541016,0.1372028477489948,11.45666790008545,L,False,True,4,L,400,,0.296,LeftResponse,correct,True,17.0
121,162,1444.1866666666665,7550,1443.976,1443.982,1443.988,0.8244672684354715,94.77592276339546,-0.8129735961556435,-94.09226989746094,-0.7012103572487831,-85.17940521240234,0.1371867656707763,11.363110542297363,0.109251320362091,6.120874404907227,L,False,True,4,R,200,,0.255,RightResponse,correct,True,11.0
122,163,1451.0226666666665,7555,1450.799,1450.805,1450.81,0.5481883651887061,55.689271603875895,-0.4573327088728547,-50.16786956787109,-0.2210427671670913,-21.59619903564453,0.3022536635398865,24.17601776123047,0.4293772876262665,41.43705368041992,L,False,True,4,L,200,,0.378,RightResponse,incorrect,True,10.0
123,164,1458.1506666666667,7566,1457.938,1457.943,1457.948,0.4831409428942904,60.1140074939087,-0.4700441211462021,-59.47727966308594,-0.2845684438943863,-35.61725234985352,0.1117304563522338,8.72623062133789,0.030489444732666,-3.8573789596557617,L,False,True,4,R,200,,0.358,RightResponse,correct,True,13.0
124,166,1465.1276666666665,2261,1464.916,1464.921,1464.925,0.35935706072266,40.82199568928422,0.350628525018692,39.659400939941406,0.4090278744697571,46.2841682434082,0.0787218809127807,9.673016548156738,0.2515303641557693,22.704626083374023,L,False,True,4,L,200,,0.29,RightResponse,incorrect,True,12.0
125,167,1470.1286666666665,7584,1469.714,1469.719,1469.725,0.530033166247515,61.54715852235522,-0.5284735783934593,-61.53208541870117,-0.5132018774747849,-60.39707946777344,0.0406304597854614,-1.3620522022247314,0.0685962438583374,14.87407398223877,L,False,True,4,L,400,,0.374,RightResponse,incorrect,True,16.0
126,168,1474.5166666666667,2268,1474.301,1474.305,1474.31,0.2366107409687486,24.61168668981933,0.2362697720527649,24.573963165283203,0.3582492731511593,26.37778854370117,-0.0126979351043701,-1.362151265144348,0.1702198088169098,12.980216026306152,L,False,True,4,R,200,,0.215,RightResponse,correct,True,15.0
127,169,1480.8616666666665,7597,1480.846,1480.851,1480.856,0.5325639515791996,61.74960450471655,-0.5310116051696241,-61.64716339111328,-0.2921828627586365,-30.55788993835449,0.0406329631805419,3.555404663085937,0.1930928826332092,15.752359390258787,L,False,True,4,R,0,,0.272,RightResponse,correct,True,28.0
128,171,1491.7866666666666,7606,1491.726,1491.731,1491.735,0.3596242264049247,43.39055248995589,-0.3302967026829719,-41.36798477172852,-0.2184772491455078,-21.93997001647949,0.1422451138496399,13.09312343597412,0.1422799229621887,12.518832206726074,L,False,True,4,R,50,,0.386,RightResponse,correct,True,11.0
129,174,1510.3136666666664,7622,1510.246,1510.249,1510.252,0.1500903980036342,19.756686436174952,-0.1498968005180359,-19.747560501098636,-0.1498758196830749,-18.359167098999023,-0.0076208114624023,-0.600427508354187,-0.0482692122459411,-4.965473175048828,L,False,True,4,R,50,,0.343,LeftResponse,incorrect,True,10.0
130,176,1522.7116666666666,7634,1522.288,1522.294,1522.299,0.4780643410150301,51.98448310955083,-0.4547879919409752,-50.58356475830078,-0.238791823387146,-24.77982521057129,0.1473546624183654,11.987053871154783,0.3658384382724762,29.47090721130371,L,False,True,4,L,400,,0.364,LeftResponse,correct,True,19.0
131,177,1525.3476666666666,7640,1525.332,1525.339,1525.344,0.7119744599049201,76.87377125361985,-0.6580417081713676,-68.46116638183594,-0.4953124523162842,-47.86765670776367,0.271824836730957,34.966346740722656,0.4471062421798706,50.62361526489258,L,False,True,4,L,0,,0.278,RightResponse,incorrect,True,27.0
132,180,1544.6316666666667,7656,1544.624,1544.629,1544.633,0.4074803255328577,46.48375856626912,-0.3531689569354057,-41.64579391479492,-0.3505127429962158,-28.30780029296875,0.203253298997879,20.64867210388184,0.0203246474266052,4.734752655029297,L,False,True,4,R,0,,0.261,RightResponse,correct,True,30.0
133,181,1547.3676666666665,7661,1547.258,1547.262,1547.267,0.3888575587137935,48.93139702581854,-0.3836374133825302,-48.387733459472656,-0.2971515655517578,-32.94743347167969,0.0635022521018982,7.273848056793213,0.2438023090362548,21.86400413513184,L,False,True,4,R,100,,0.332,RightResponse,correct,True,11.0
134,182,1550.7236666666665,2335,1550.315,1550.321,1550.326,0.6173009137906044,67.21764013318787,0.6122573018074036,66.95304870605469,0.7468465864658356,70.8760986328125,0.0787490606307983,5.958222389221191,0.040645956993103,4.2262773513793945,L,False,True,4,R,400,,0.32,RightResponse,correct,True,18.0
135,184,1561.0486666666666,7673,1560.975,1560.981,1560.985,0.6757018523955628,80.42009442070614,-0.4903358221054077,-58.89604568481445,-0.5079836249351501,-43.08467864990234,0.4649126529693603,54.75990676879883,0.3175538778305053,32.95682907104492,L,False,True,4,L,50,,0.289,LeftResponse,correct,True,13.0
136,185,1564.6916666666666,7679,1564.279,1564.284,1564.288,0.4487541715707451,50.25868953413307,-0.3531325161457062,-41.15665435791016,-0.271812379360199,-25.77229118347168,0.2769074440002441,28.845548629760746,-0.0228639841079711,-6.027830123901367,L,False,True,4,L,400,,0.284,LeftResponse,correct,True,17.0
137,186,1567.8726666666666,7683,1567.803,1567.807,1567.811,0.3605216458599875,43.54944911342,-0.3150402903556824,-39.56475830078125,-0.2286326885223388,-21.200462341308597,0.1752868294715881,18.19847297668457,0.1168597936630249,14.688220977783203,L,False,True,4,L,50,,0.221,RightResponse,incorrect,True,12.0
138,188,1579.9836666666665,7697,1579.575,1579.581,1579.586,0.696680564289577,83.02458681541069,-0.696119874715805,-83.00839233398438,-0.5613869428634644,-60.96429061889648,0.0279451012611389,1.6397615671157837,-0.0279386043548584,-7.457985877990723,L,False,True,4,R,400,,0.387,RightResponse,correct,True,16.0
139,189,1586.9326666666666,7703,1586.868,1586.876,1586.881,0.8716417311346495,92.41608470114166,-0.8383029997348785,-88.10566711425781,-0.7591851949691772,-86.96788787841797,0.2387621998786926,27.89487648010254,0.558663010597229,47.27661895751953,L,False,True,4,R,50,,0.302,RightResponse,correct,True,15.0
140,190,1590.1966666666665,7706,1590.084,1590.091,1590.096,0.6951257691602368,74.77250432850676,-0.6834214925765991,-73.21669006347656,-0.4622437953948974,-54.211029052734375,0.1270232200622558,15.173783302307127,0.0584267377853393,6.951234817504883,L,False,True,4,L,100,,0.236,LeftResponse,correct,True,10.0
141,191,1593.4436666666666,7716,1593.432,1593.439,1593.445,0.6850046691620082,68.68863280860752,-0.6758211492560804,-67.92918395996094,-0.5764960646629333,-63.76627349853516,0.1117907464504242,10.185982704162598,-0.0533472895622253,0.2540332674980163,L,False,True,4,L,0,,0.291,RightResponse,incorrect,True,29.0
142,193,1604.8136666666664,7727,1604.699,1604.706,1604.712,0.6760272979496582,71.78540550290887,-0.6732721254229546,-71.76221466064453,-0.3478806018829345,-42.84481430053711,-0.0609717369079589,-1.824552059173584,0.0609692335128784,-6.720560073852539,L,False,True,4,L,100,,0.393,LeftResponse,correct,True,9.0
143,194,1607.9986666666666,7733,1607.934,1607.941,1607.946,0.5377473150597609,64.07694879781992,-0.536011129617691,-63.81011962890625,-0.2513705492019653,-35.362606048583984,-0.0431768894195556,-5.841575145721436,-0.0431727170944213,-9.096490859985352,L,False,True,4,L,50,,0.28,LeftResponse,correct,True,14.0
144,195,1611.3716666666667,7737,1610.955,1610.96,1610.966,0.7601958190775656,86.49688529504634,-0.749509796500206,-86.38434600830078,-0.3124124407768249,-33.94327926635742,0.1270147562026977,4.410887718200684,-0.0127010941505432,0.5773473978042603,L,False,True,4,R,400,,0.321,RightResponse,correct,True,15.0
145,197,1624.4856666666665,7751,1624.462,1624.468,1624.473,0.6048993958557607,70.80480950612535,-0.5944815278053284,-70.37316131591797,-0.1041473746299743,-20.92210578918457,0.1117810010910034,7.806357383728027,0.2997759580612182,23.996152877807617,L,False,True,4,L,0,,0.343,LeftResponse,correct,True,32.0
146,198,1627.9956666666665,7757,1627.883,1627.889,1627.894,0.5070917148743199,54.186535813187554,-0.4852144420146942,-53.00161743164063,-0.3073801398277282,-38.8209114074707,0.1473395824432373,11.26983642578125,-0.0330230593681335,1.3163247108459473,L,False,True,4,L,100,,0.375,RightResponse,incorrect,True,8.0
147,203,1822.0006666666666,7899,1821.797,1821.8,1821.805,0.2685172424066402,33.820858631271484,-0.2515228986740112,-31.64246940612793,-0.3658641949295997,-40.16670989990234,0.0940092597156763,11.941717147827148,0.0736830439418554,7.576187610626221,L,False,True,5,L,200,,0.357,LeftResponse,correct,True,14.0
148,205,1836.0236666666665,7912,1835.611,1835.617,1835.623,0.8812425138205141,95.16332391676774,-0.8812095522880554,-95.1159439086914,-0.6580316498875618,-75.89642333984375,0.0076218843460083,-3.0025711059570312,0.2464240789413452,18.267894744873047,L,False,True,5,L,400,,0.206,RightResponse,incorrect,True,14.0
149,206,1843.8546666666666,7916,1843.443,1843.452,1843.459,1.2952676678147432,126.3263738769234,-1.264756441116333,-122.12979125976562,-1.1506000459194183,-136.51194763183594,0.2794807255268097,32.29035186767578,0.1270367950201034,26.908689498901367,L,False,True,5,L,400,,0.218,LeftResponse,correct,True,17.0
150,207,1847.0026666666665,7923,1846.891,1846.897,1846.902,0.6758759449055205,71.4698690546277,-0.6757565438747406,-71.40869140625,-0.4953674674034118,-57.50284576416016,0.0127037912607193,-2.9565138816833496,0.0533561706542968,0.9701114892959596,L,False,True,5,L,100,,0.385,RightResponse,incorrect,True,11.0
151,208,1849.9586666666667,7926,1849.895,1849.9,1849.905,0.6188533481992003,62.73714123140908,-0.4141120314598083,-44.96764755249024,-0.28960782289505,-34.73431396484375,0.4598811715841293,43.7476806640625,0.2464564815163612,28.780067443847656,L,False,True,5,L,50,,0.267,RightResponse,incorrect,True,13.0
152,209,1853.6016666666665,7929,1853.39,1853.395,1853.401,0.6182302010375382,64.75026455461473,-0.5461840629577637,-62.33186340332031,-0.5233087241649628,-51.822998046875,0.2896403819322586,17.530988693237305,0.4522346705198288,30.325658798217773,L,False,True,5,R,200,,0.341,RightResponse,correct,True,13.0
153,210,1861.1536666666666,2591,1861.09,1861.095,1861.098,0.2682629946298073,30.80053486327453,0.2362758517265319,24.89797019958496,0.3379054665565491,36.14664840698242,0.1270384043455124,18.131851196289062,0.2286619246006012,31.73537254333496,L,False,True,5,L,50,,0.35,LeftResponse,correct,True,16.0
154,211,1866.4746666666665,7941,1866.409,1866.419,1866.426,1.453032753395777,144.35408862723278,-1.4349266588687897,-141.86744689941406,-1.2850086092948914,-138.1645050048828,0.2286693379282951,26.67827606201172,0.4065226092934608,39.63608551025391,L,False,True,5,L,50,,0.22,LeftResponse,correct,True,15.0
155,212,1869.1886666666664,7946,1869.177,1869.182,1869.187,0.3838331520351237,46.19088295656064,-0.3785408735275268,-45.868106842041016,-0.2438742518424987,-28.49796295166016,0.0635192543268203,5.451095581054688,0.1956409886479377,14.390127182006836,L,False,True,5,R,0,,0.222,RightResponse,correct,True,31.0
156,213,1876.1756666666665,2604,1875.96,1875.969,1875.975,0.9083336020890624,92.84355050155624,0.8891959302127361,91.4854736328125,0.8562207967042923,87.14747619628906,0.1854737997055053,15.821914672851562,0.1117916703224182,15.08260440826416,L,False,True,5,L,200,,0.219,RightResponse,incorrect,True,12.0
157,215,1887.6206666666665,7961,1887.605,1887.61,1887.615,0.3964677609928736,45.68667380473512,-0.396337479352951,-45.22328567504883,-0.238785982131958,-28.012439727783203,-0.0101630687713623,-6.490500450134277,0.2617007419466972,19.74880027770996,L,False,True,5,L,0,,0.246,RightResponse,incorrect,True,30.0
158,216,1890.7096666666666,7965,1890.645,1890.652,1890.655,0.4031370283026444,46.44304461811501,-0.3150398731231689,-34.22923278808594,-0.248914897441864,-26.022539138793945,0.2515339776873588,31.38974380493164,0.2591602429747581,31.759845733642575,L,False,True,5,R,50,,0.22,RightResponse,correct,True,14.0
159,217,1897.0416666666665,7970,1897.028,1897.034,1897.039,0.6321695703753809,74.08931042889228,-0.5842743813991547,-70.85061645507812,-0.4978665113449096,-58.538536071777344,0.2413748390972614,21.66601181030273,0.2769435681402683,26.42400932312012,L,False,True,5,L,0,,0.296,RightResponse,incorrect,True,33.0
160,218,1902.1256666666666,7977,1901.912,1901.918,1901.922,0.4945675079385047,53.86205390059497,-0.4344680546782911,-47.90459060668945,-0.2692664861679077,-31.33703994750977,0.2362933121621608,24.62257194519043,0.2693237662315368,28.8264217376709,L,False,True,5,R,200,,0.267,RightResponse,correct,True,15.0
161,219,1908.3876666666665,2637,1908.274,1908.28,1908.284,0.4422202302089995,48.11613569176087,0.4014437645673752,42.9854736328125,0.5665135383605957,64.13372039794922,0.1854767799377441,21.61970329284668,0.1168761290609836,9.86286449432373,L,False,True,5,R,100,,0.227,RightResponse,correct,True,14.0
162,220,1912.2966666666666,7994,1912.222,1912.229,1912.234,0.4270160472541475,50.20151672253256,-0.4268270581960678,-50.16577911376953,-0.228632390499115,-28.10577964782715,-0.0127030313014984,-1.893907904624939,0.08384595438838,9.193018913269045,L,False,True,5,L,50,,0.336,RightResponse,incorrect,True,13.0
163,221,1914.8776666666665,2657,1914.818,1914.822,1914.826,0.2840580712519651,31.122683173542853,0.2540682703256607,29.471969604492188,0.3200826644897461,36.488529205322266,0.1270366162061691,10.001220703125,0.2540789544582367,22.24345970153809,L,False,True,5,R,50,,0.203,RightResponse,correct,True,16.0
164,222,1918.9376666666665,8006,1918.526,1918.531,1918.536,0.6416570882323086,77.34140595831826,-0.6377010494470596,-77.12031555175781,-0.6044958829879761,-66.06075286865234,0.0711420439183712,5.8438005447387695,0.1549878269433975,11.271841049194336,L,False,True,5,R,400,,0.375,RightResponse,correct,True,16.0
165,223,1925.0906666666665,8012,1924.977,1924.984,1924.991,1.0595624685719238,112.22899359331684,-1.0362480878829956,-110.27379608154295,-1.0056958198547363,-113.54598236083984,0.2210486941039562,20.8575382232666,0.358250230550766,24.55321311950684,L,False,True,5,L,100,,0.381,LeftResponse,correct,True,13.0
166,224,1928.0096666666666,2673,1927.798,1927.804,1927.81,0.6722068182817588,78.73843296663493,0.6580561101436615,77.26225280761719,0.6782630681991577,72.86115264892578,0.1372011750936508,15.175148010253906,0.3023505881428718,36.63312149047852,L,False,True,5,L,200,,0.367,RightResponse,incorrect,True,14.0
167,225,1932.7766666666666,8023,1932.766,1932.771,1932.776,0.3743541231996931,41.22349479740541,-0.3734909119084477,-41.113990783691406,-0.24893718957901,-27.249042510986328,0.0254076421260833,3.0027129650115967,-0.0279487073421478,-1.6861628293991089,L,False,True,5,R,0,,0.253,RightResponse,correct,True,36.0
168,226,1936.0776666666666,8027,1935.854,1935.858,1935.862,0.3004785559470687,35.19947404043802,-0.2997902631759643,-35.19886016845703,-0.1041388511657714,-10.852535247802734,0.0203263545408844,0.2078835368156433,0.2032633870840072,16.954010009765625,L,False,True,5,R,200,,0.313,RightResponse,correct,True,17.0
169,227,1939.3956666666666,2688,1939.385,1939.392,1939.398,0.7330353500359147,85.32933714381389,0.7266491502523422,85.2066879272461,0.8941999077796936,88.17635345458984,0.0965496599674224,4.573413372039795,0.1600673496723175,24.206249237060547,L,False,True,5,L,0,,0.282,LeftResponse,correct,True,35.0
170,229,1949.6376666666665,2702,1949.577,1949.582,1949.586,0.4592910934760543,53.8803790528941,0.4420960545539856,51.878204345703125,0.5436317324638367,61.61445617675781,0.1244965344667434,14.55153465270996,0.1499063856899738,16.86159324645996,L,False,True,5,R,50,,0.293,LeftResponse,incorrect,True,15.0
171,230,1954.2306666666666,8050,1953.81,1953.815,1953.818,0.2679790501698492,30.827950372544027,-0.2667718529701233,-29.74907684326172,-0.1651167273521423,-15.795646667480469,0.0254076719284057,8.084240913391113,0.1219579726457595,14.921374320983888,L,False,True,5,R,400,,0.266,RightResponse,correct,True,15.0
172,231,1957.1116666666665,8053,1956.896,1956.902,1956.908,0.7188717645022464,78.25011210779114,-0.7164925932884216,-77.30841064453125,-0.3606467247009277,-37.33354568481445,-0.0584378093481063,-12.10329246520996,0.0736810863018035,3.78798508644104,L,False,True,5,L,200,,0.242,LeftResponse,correct,True,16.0
173,232,1960.0836666666667,8056,1959.97,1959.976,1959.981,0.4912597670735634,54.30019421454497,-0.4598754160106182,-51.99288177490234,-0.3225206136703491,-37.2155647277832,0.1727737262845039,15.660502433776855,0.1702316477894783,12.634593963623049,L,False,True,5,R,100,,0.244,RightResponse,correct,True,12.0
174,233,1965.7296666666666,8060,1965.316,1965.322,1965.327,0.6785126502130104,72.36748383615453,-0.5995926931500435,-63.93207550048828,-0.3885760307312011,-49.13116455078125,0.3175972588360309,33.90785217285156,0.2210451662540435,23.051597595214844,L,False,True,5,L,400,,0.237,RightResponse,incorrect,True,14.0
175,235,1977.1376666666665,8072,1976.717,1976.721,1976.724,0.2980960248254301,36.387738946750616,-0.2464567124843597,-30.350906372070312,-0.1955504417419433,-21.424972534179688,0.167691171169281,20.072120666503903,0.0914682857692241,11.364224433898926,L,False,True,5,L,400,,0.284,LeftResponse,correct,True,17.0
176,236,1983.2116666666666,8076,1983.197,1983.203,1983.208,0.6379766940909717,71.75901141840428,-0.6224837154150009,-71.53369140625,-0.4545241594314575,-52.539588928222656,0.1397436447441578,5.682139873504639,0.1676916740834713,15.845285415649414,L,False,True,5,L,0,,0.38,LeftResponse,correct,True,34.0
177,237,1988.5036666666665,8080,1988.092,1988.097,1988.102,0.3986350473804701,49.67092669113684,-0.381116583943367,-47.4201545715332,-0.2691779136657715,-34.28122329711914,0.1168762184679508,14.782756805419922,0.1143333315849304,15.821900367736816,L,False,True,5,R,400,,0.339,RightResponse,correct,True,16.0
178,238,1992.5246666666665,2744,1992.516,1992.523,1992.529,1.023446290550446,107.63617197289192,0.970398873090744,103.9690933227539,1.1380556672811508,109.42308044433594,0.3252204433083534,27.856294631958008,0.1803914606571197,14.64366340637207,L,False,True,5,R,0,,0.317,RightResponse,correct,True,33.0
179,239,2000.5226666666665,8096,2000.308,2000.316,2000.322,0.9920776557808798,108.6141035006273,-0.9832407534122468,-107.79332733154295,-0.8505635261535645,-105.08306884765624,0.1321200057864189,13.327492713928224,0.2312117777764797,31.852258682250977,L,False,True,5,R,200,,0.332,RightResponse,correct,True,15.0
