,trialIndex,targetOnsetTime,Unnamed: 0,startTime,peakVelocityTime,stopTime,amplitude,peakVelocity,saccade_vec_left_x,peak_velocity_vec_left_x,saccade_vec_right_x,peak_velocity_vec_right_x,saccade_vec_left_y,peak_velocity_vec_left_y,saccade_vec_right_y,peak_velocity_vec_right_y,whichEye,otherEyeMissingData,isBinocular,blockId,arrowDirection,latency,blankDuration,fixationDurationInSec,response,result,isSaccade,blankDurationInFrameCount
0,0,319.90766666666667,5637,319.491,319.5,319.507,0.8012826679894661,69.69165072793923,-0.2311725616455078,-22.63210678100586,-0.2921837866306305,-29.17230033874512,0.7672112882137299,65.91444396972656,0.6579330861568451,62.21511459350586,L,False,True,0,L,400,,0.256,LeftResponse,correct,True,8.0
1,2,329.4216666666667,9784,329.013,329.02,329.026,0.3836856686662506,33.350605973711154,-0.3836520165205002,-33.07571792602539,-0.4242720901966095,-47.3006477355957,-0.0050815902650356,4.273149013519287,0.1244989074766635,8.176738739013672,L,False,True,0,R,400,,0.3,LeftResponse,incorrect,True,7.0
2,3,337.21566666666666,1435,337.201,337.21,337.22,1.046879329699339,85.23669205370969,1.0391427278518677,85.23035430908203,0.9883432686328888,77.83930206298828,-0.1270382702350616,1.0394116640090942,-0.2489966182038188,-16.168603897094727,L,False,True,0,L,0,,0.261,RightResponse,incorrect,True,8.0
3,4,341.1786666666667,1451,341.067,341.075,341.082,0.5920988583411136,54.88400010904145,0.5894546210765839,54.85737991333008,0.5919906497001648,61.64736175537109,0.0558955073356628,1.709191918373108,-0.0635169744491577,4.734895706176758,L,False,True,0,R,100,,0.303,LeftResponse,incorrect,True,8.0
4,7,359.89366666666666,1479,359.83,359.839,359.847,0.8084623801743283,75.91890045070217,0.8003368079662323,74.88343811035156,0.8689340651035309,66.22185516357422,0.1143346577882766,12.496005058288574,-0.1219580750912427,-10.209372520446776,L,False,True,0,R,50,,0.33,LeftResponse,incorrect,True,8.0
5,8,363.3156666666667,9866,363.102,363.108,363.113,0.3841131013912615,40.384152412556105,-0.3404574170708656,-35.59326934814453,-0.2871038764715194,-28.10976791381836,-0.1778528094291687,-19.07875633239746,-0.1600699163973331,-17.208091735839844,L,False,True,0,R,200,,0.339,RightResponse,correct,True,8.0
6,10,370.53066666666666,9881,370.118,370.125,370.131,0.4160984162007866,43.51752028825513,-0.4116069674491882,-42.96240615844727,-0.1930993981659412,-22.266489028930664,0.0609720945358276,6.928652763366699,-0.0127031803131103,3.718544006347656,L,False,True,0,L,400,,0.333,LeftResponse,correct,True,10.0
7,12,380.81466666666665,1512,380.801,380.81,380.819,0.8442770305489985,67.12939688398508,0.8384418189525604,66.29058837890625,0.8663874864578247,77.49264526367188,0.0990909710526466,10.578932762145996,0.1981805004179477,16.653606414794922,L,False,True,0,L,0,,0.287,LeftResponse,correct,True,11.0
8,13,384.15766666666667,9908,383.947,383.955,383.96,0.8386207346262368,80.06529286066414,-0.6910467073321342,-68.48042297363281,-0.5818064510822296,-61.48277282714844,-0.4751201793551445,-41.483524322509766,-0.1931001357734203,-14.505622863769531,L,False,True,0,L,200,,0.232,LeftResponse,correct,True,7.0
9,15,392.3256666666667,1532,392.264,392.273,392.28,1.1606822056411514,116.1097443277188,1.082328051328659,106.20066833496094,1.0645588636398315,93.01406860351562,0.4192244885489344,46.93496322631836,0.1219545006752014,11.086854934692385,L,False,True,0,L,50,,0.392,LeftResponse,correct,True,11.0
10,16,399.7536666666667,1540,399.742,399.752,399.76,0.8305263224674639,71.06129966478069,0.8282847106456757,68.20820617675781,0.9019633233547212,65.25167083740234,0.0609787702560424,19.933612823486328,-0.0787645950913429,-4.504117012023926,L,False,True,0,R,0,,0.364,LeftResponse,incorrect,True,10.0
11,17,404.7116666666667,1552,404.301,404.31,404.316,0.672492523778718,59.61741183919487,0.6631385385990143,58.76094818115234,0.6402630060911179,58.783912658691406,-0.111774206161499,-10.069099426269531,-0.2896498963236809,-30.789770126342773,L,False,True,0,L,400,,0.234,RightResponse,incorrect,True,9.0
12,19,414.0126666666667,1566,413.8,413.806,413.812,0.6324352329786835,69.69600316945437,0.6250226199626923,69.68565368652344,0.6733028888702393,56.93653106689453,-0.0965455770492553,-1.2010529041290283,-0.1499038934707641,-11.479606628417969,L,False,True,0,L,200,,0.382,LeftResponse,correct,True,6.0
13,20,417.25666666666666,9981,417.043,417.05,417.057,0.5183125883340836,49.836854242098674,-0.5183125883340836,-49.49854278564453,-0.5691333711147308,-60.05476379394531,0.0,-5.797094345092773,0.1168734431266784,11.802811622619627,L,False,True,0,L,200,,0.392,RightResponse,incorrect,True,5.0
14,21,422.0606666666667,1579,421.649,421.657,421.664,0.8574467774035022,87.51500717354394,0.8562264144420624,87.1012954711914,0.8740103244781494,73.08086395263672,0.0457307696342468,8.499459266662598,-0.0228663086891174,-1.5937191247940063,L,False,True,0,R,400,,0.371,LeftResponse,incorrect,True,12.0
15,22,425.8826666666667,10001,425.87,425.877,425.881,0.2744496382085346,25.729833057226344,-0.2744025997817516,-25.592378616333008,-0.3125112876296043,-31.990140914916992,0.0050810575485229,-2.65602445602417,-0.0050813853740692,-1.7553894519805908,L,False,True,0,L,0,,0.252,LeftResponse,correct,True,13.0
16,23,428.73066666666665,1588,428.721,428.728,428.734,0.4674751948932706,49.77079228403807,0.4624144753906876,49.05949020385742,0.4395544677972793,43.26255035400391,-0.0685996413230896,-8.384401321411133,-0.266775369644165,-20.16412353515625,L,False,True,0,R,0,,0.344,RightResponse,correct,True,12.0
17,24,436.0876666666667,1596,435.977,435.985,435.994,0.598937867083326,49.91794496407922,0.5411835759878159,45.34134292602539,0.7825476974248886,69.2470703125,-0.2566065192222595,-20.87974739074707,-0.2566189598292112,-16.03007698059082,L,False,True,0,L,100,,0.353,LeftResponse,correct,True,11.0
18,25,439.2766666666667,5846,439.264,439.267,439.273,0.2108923533772854,24.79961334250912,-0.0787640213966369,-15.1522216796875,-0.1092531383037567,-14.020442008972168,0.1956318318843841,19.632396697998047,0.2947121560573578,24.87467765808105,L,False,True,0,L,0,,0.362,RightResponse,incorrect,True,11.0
19,26,442.81166666666667,10044,442.7,442.707,442.711,0.3867447519530929,37.80908405674238,-0.2871019542217254,-28.08646583557129,-0.4014333263039589,-35.153987884521484,-0.2591215372085571,-25.311603546142575,-0.1803927719593048,-20.71859359741211,L,False,True,0,L,100,,0.391,LeftResponse,correct,True,10.0
20,27,445.6086666666667,10053,445.546,445.554,445.561,0.5823342755022538,54.713216785031136,-0.5640408452600241,-53.470611572265625,-0.4573283791542053,-40.16661071777344,-0.144814133644104,-11.594386100769045,0.0584366917610168,5.381740570068359,L,False,True,0,R,50,,0.232,RightResponse,correct,True,10.0
21,28,449.9096666666667,10063,449.7,449.707,449.713,0.605771167068093,59.54330643953633,-0.4903660342097282,-49.05974197387695,-0.5437195524573326,-52.57015609741211,-0.3556681871414184,-33.74236297607422,-0.2286615371704101,-25.568574905395508,L,False,True,0,R,200,,0.386,RightResponse,correct,True,8.0
22,30,456.83366666666666,10083,456.824,456.829,456.834,0.2572353514600827,30.67434698612368,-0.2566198036074638,-30.67426872253418,-0.1778553910553455,-20.372533798217773,0.0177848935127258,-0.0692918673157692,0.0584379583597183,3.834268093109131,L,False,True,0,R,0,,0.222,RightResponse,correct,True,14.0
23,33,469.6356666666667,1677,469.625,469.631,469.638,0.3457138536481919,32.338032737328504,0.3430050201714039,32.33720779418945,0.4802071005105972,46.17298889160156,0.0431928783655166,0.2309835404157638,-0.0203258991241455,-3.9958746433258057,L,False,True,0,R,0,,0.379,LeftResponse,incorrect,True,13.0
24,34,473.3246666666667,1691,473.213,473.22,473.226,0.5772631990173045,66.0734921094359,0.5691322386264801,65.78289794921875,0.6504264175891876,47.488407135009766,0.096546858549118,6.1900482177734375,0.3709491267800331,26.054319381713867,L,False,True,0,L,100,,0.284,RightResponse,incorrect,True,9.0
25,35,478.13366666666667,1699,477.92,477.927,477.934,0.5779671779338856,57.820573492931054,0.5361038148403168,54.16486740112305,0.574211448431015,55.642608642578125,0.2159600853919983,20.233285903930664,0.0177855119109153,3.441612482070923,L,False,True,0,R,200,,0.297,LeftResponse,incorrect,True,7.0
26,36,481.76366666666667,1716,481.654,481.66,481.668,0.5882142087143326,60.49559289797324,0.5818361192941666,58.94596481323242,0.6834542453289032,58.94524002075195,0.0863868370652198,13.604778289794922,-0.0558971986174583,8.453896522521973,L,False,True,0,L,100,,0.263,RightResponse,incorrect,True,12.0
27,38,489.9576666666667,10187,489.745,489.752,489.758,0.4700615897131278,46.99576614555304,-0.470034122467041,-46.98041534423828,-0.3734697103500366,-35.522361755371094,-0.0050815194845199,-1.2010868787765503,-0.0660604313015937,-10.070730209350586,L,False,True,0,L,200,,0.307,LeftResponse,correct,True,10.0
28,40,600.5406666666667,1993,600.429,600.429,600.436,0.1024181784432298,14.781693146407788,0.0940046906471252,9.723788261413574,0.0152403712272644,12.169265747070312,0.0406522005796432,11.133121490478516,-0.1016158461570739,-2.7020740509033203,L,False,True,1,L,100,,0.307,LeftResponse,correct,True,15.0
29,41,604.2506666666667,5623,603.831,603.833,603.838,0.2001904529625028,25.20533134006676,0.0381111353635787,3.995893716812134,-0.0813041776418685,-9.654862403869627,-0.909395396709442,-106.67886352539062,0.1829367326572537,23.28287696838379,R,True,False,1,R,400,,0.372,RightResponse,correct,True,14.0
30,42,607.6396666666667,14885,607.226,607.232,607.24,0.7059139096469125,65.27510677697515,-0.2972619384527206,-27.04701042175293,-0.1397436484694481,-14.205347061157228,-0.6402732133865356,-59.407901763916016,-0.6046998798847198,-53.93331527709961,L,False,True,1,L,400,,0.228,LeftResponse,correct,True,13.0
31,43,610.7416666666667,14891,610.719,610.727,610.732,0.7625476547449497,74.94384523232807,-0.0660572946071624,-7.57577657699585,-0.0381117537617683,-0.1616856455802917,-0.7596810907125473,-74.5599594116211,-0.716494083404541,-57.9063835144043,L,False,True,1,R,0,,0.216,RightResponse,correct,True,16.0
32,44,616.9406666666666,2025,616.732,616.738,616.744,0.4609672402902814,46.37925517031837,0.4293834716081619,43.46964263916016,0.3684102871920913,38.94306182861328,0.1676920717582106,16.168657302856445,0.0914675295352935,8.869584083557129,L,False,True,1,R,200,,0.388,LeftResponse,incorrect,True,9.0
33,45,624.6636666666667,2033,624.253,624.261,624.27,0.6687400570871254,57.72287901905364,0.663136899471283,54.372535705566406,0.7012498080730438,52.01674270629883,0.0863870158791542,19.379322052001957,0.0050815343856811,5.1277337074279785,L,False,True,1,L,400,,0.317,RightResponse,incorrect,True,12.0
34,46,628.6476666666666,2043,628.588,628.596,628.599,0.6665891847452209,69.11189124636928,0.4649586305022239,39.54376220703125,0.4954497367143631,34.50852966308594,-0.477655328810215,-56.68107604980469,-0.3582494147121906,-40.79105758666992,L,False,True,1,R,50,,0.341,RightResponse,correct,True,9.0
35,47,632.3786666666666,10501,632.168,632.175,632.182,0.614629213284093,64.75396027343446,-0.5818233089521527,-62.57099151611328,-0.5386379659175873,-55.36540603637695,-0.1981179118156433,-16.671724319458008,-0.1931001767516136,-25.84676551818848,L,False,True,1,R,200,,0.369,LeftResponse,incorrect,True,12.0
36,48,635.7466666666667,10504,635.535,635.544,635.55,0.871469802980165,83.17680164757328,-0.8714661002159119,-83.15082550048828,-0.7495109289884567,-76.15155792236328,0.0025404095649719,-2.0785934925079346,0.1117932647466659,9.539429664611816,L,False,True,1,R,200,,0.256,LeftResponse,incorrect,True,15.0
37,49,640.9136666666667,2059,640.5,640.51,640.518,0.8030112306654178,65.04324759464934,0.7977851033210754,64.99627685546875,0.7266573011875153,52.08599853515625,-0.0914656519889831,-2.471447467803955,-0.3099692612886429,-18.96314239501953,L,False,True,1,R,400,,0.394,LeftResponse,incorrect,True,15.0
38,50,646.0256666666667,2069,645.815,645.824,645.831,0.6062439110343949,52.39362087241922,0.6047033071517944,52.386268615722656,0.6682176142930984,65.82859802246094,-0.0431924760341644,-0.8777064681053162,0.1295781731605529,12.565237998962402,L,False,True,1,L,200,,0.326,LeftResponse,correct,True,18.0
39,51,649.7106666666667,10526,649.298,649.306,649.312,0.5950230974052462,58.59972377815296,-0.5564019232988358,-53.746124267578125,-0.4903690665960312,-49.98410034179688,0.2108776569366455,23.351268768310547,0.4192238131072372,35.66286087036133,L,False,True,1,L,400,,0.319,LeftResponse,correct,True,18.0
40,52,656.5596666666667,2089,656.547,656.557,656.563,0.6029327872904351,55.732712993947246,0.6021614670753479,53.91038513183594,0.6428143680095673,46.44994354248047,0.0304879248142242,14.135263442993164,-0.1321206875145435,-5.474234580993652,L,False,True,1,L,0,,0.315,LeftResponse,correct,True,15.0
41,53,661.3226666666667,10547,661.309,661.315,661.321,0.4104742702776073,38.31489544445776,-0.3963618576526642,-38.08867263793945,-0.3150520771741867,-31.94399070739746,-0.1067070960998535,-4.157430648803711,-0.0127038955688476,-1.894035577774048,L,False,True,1,R,0,,0.335,LeftResponse,incorrect,True,14.0
42,54,666.0436666666667,2102,665.633,665.638,665.645,0.4764347722817171,48.25939627622592,0.350628525018692,37.78845977783203,0.2947311475872993,32.06013107299805,0.3225674033164978,30.01668930053711,0.2896487489342689,27.093957901000977,L,False,True,1,R,400,,0.307,RightResponse,correct,True,17.0
43,55,670.8316666666667,10565,670.771,670.778,670.783,0.3727245619246663,41.27402194102903,-0.3658731281757355,-39.35912322998047,-0.3557078838348388,-40.7446517944336,-0.071136862039566,-12.425952911376951,-0.0508139729499816,-3.1181304454803467,L,False,True,1,L,50,,0.303,RightResponse,incorrect,True,8.0
44,56,676.4226666666667,2115,676.211,676.22,676.229,0.7723354003453006,58.9565731223511,0.7571412324905396,58.85332107543945,0.7368140816688538,67.1683349609375,0.152443841099739,3.487708806991577,0.0177854746580123,9.285422325134276,L,False,True,1,L,200,,0.265,LeftResponse,correct,True,17.0
45,57,679.9826666666667,2127,679.773,679.78,679.788,0.6839133610757048,61.35716190719207,0.6834414601325989,61.322731018066406,0.6377329528331757,53.24093627929688,-0.0254018902778625,-2.055231809616089,-0.0686012208461761,1.5244733095169067,L,False,True,1,R,200,,0.293,RightResponse,correct,True,16.0
46,59,686.4936666666666,2140,686.433,686.44,686.445,1.1515174635027108,118.05079578905384,0.3404647633433342,39.28975677490234,0.1524473964236676,15.498790740966797,1.100034642033279,111.32073211669922,0.5310217142105103,46.242305755615234,L,False,True,1,R,50,,0.306,RightResponse,correct,True,10.0
47,60,690.8616666666667,2144,690.75,690.757,690.764,0.5785501826331827,53.90695427650842,0.4802074283361435,44.23278045654297,0.4573390185832977,50.05322647094727,0.3226780742406845,30.812673568725582,0.0482745915651321,3.279898166656494,L,False,True,1,R,100,,0.314,RightResponse,correct,True,14.0
48,61,697.1276666666666,2153,697.014,697.022,697.031,0.8176053426151325,80.51963126385078,0.8130291849374771,77.60791778564453,0.7037903964519501,64.7897720336914,0.0863831043243408,21.457448959350582,0.1016317382454872,12.680869102478027,L,False,True,1,L,100,,0.384,LeftResponse,correct,True,13.0
49,62,700.8366666666667,2162,700.777,700.786,700.795,0.6544221345213389,50.427745648695485,0.6351920664310455,48.75995635986328,0.7215704321861267,69.43183898925781,-0.1574781537055969,-12.861733436584473,-0.3048945665359497,-13.627894401550291,L,False,True,1,L,50,,0.367,LeftResponse,correct,True,9.0
50,63,704.8216666666667,10613,704.41,704.416,704.421,0.4760773423877566,55.35121553707268,-0.4268392994999885,-51.69181823730469,-0.5615042224526405,-60.26159286499024,0.2108502984046936,19.79174041748047,-0.0203259736299514,-4.827415466308594,L,False,True,1,R,400,,0.219,RightResponse,correct,True,16.0
51,64,708.3186666666667,2178,708.207,708.214,708.218,0.5635694645546395,57.37434321602062,0.3430015817284584,36.40222930908203,0.2769457623362541,31.990816116333008,-0.4471693821251392,-44.347412109375,-0.2820207625627517,-35.82444381713867,L,False,True,1,R,100,,0.211,RightResponse,correct,True,12.0
52,65,712.2406666666667,10630,712.228,712.233,712.237,0.3054030071487777,33.647528947165,-0.2134237065911293,-24.252666473388672,-0.3023533448576927,-30.4201774597168,-0.2184520959854126,-23.323043823242188,-0.2058037221431732,-21.20401382446289,L,False,True,1,L,0,,0.345,LeftResponse,correct,True,17.0
53,66,715.8416666666667,10633,715.617,715.625,715.632,1.0623533446941609,93.60543064239708,-0.7241169214248657,-69.0628662109375,-0.6834625750780106,-68.00023651123047,0.7773347496986389,63.18462753295898,0.5257365703582764,41.92976379394531,L,False,True,1,L,200,,0.201,LeftResponse,correct,True,15.0
54,67,720.2086666666667,2191,720.197,720.204,720.212,0.4555076544312967,41.28229461333186,0.4547985792160034,41.11447525024414,0.4243096560239792,33.49210739135742,0.0254062116146087,3.718571424484253,-0.1219579982571303,-8.615599632263184,L,False,True,1,L,0,,0.315,RightResponse,incorrect,True,16.0
55,68,724.0936666666666,10645,724.081,724.086,724.093,0.4052404776227034,41.13122640338639,-0.3328329026699066,-34.59994888305664,-0.3582479832693934,-34.439056396484375,-0.2311754822731018,-22.240083694458008,-0.1753143349196761,-12.796317100524902,L,False,True,1,L,0,,0.317,LeftResponse,correct,True,19.0
56,70,737.3626666666667,2213,737.299,737.305,737.313,0.4897701940397355,52.11260998960714,0.4522591531276703,43.840118408203125,0.6148638278245926,47.51249313354492,0.187980055809021,28.173891067504883,-0.0050815865397453,-1.7092602252960205,L,False,True,1,L,50,,0.306,LeftResponse,correct,True,8.0
57,72,744.7276666666667,2230,744.616,744.624,744.629,0.5969607769860156,65.10682242790081,0.5437239706516266,55.59683609008789,0.3861988186836242,31.413196563720703,0.246427297592163,33.88052749633789,0.1092515438795089,13.281105995178224,L,False,True,1,L,100,,0.379,LeftResponse,correct,True,11.0
58,73,749.3486666666666,10684,749.235,749.242,749.248,0.4949731292685387,50.666837252085166,-0.4878240041434765,-50.23760986328125,-0.4827365055680275,-47.81152725219727,0.0838220715522766,6.581105709075928,0.0965501740574836,9.008271217346191,L,False,True,1,R,100,,0.347,RightResponse,correct,True,10.0
59,74,752.8626666666667,15168,752.747,752.751,752.756,0.2719850550245198,29.034927682555505,0.1473655924201011,16.65369987487793,0.2108821868896484,20.048812866210938,-0.2286028265953064,-23.784055709838867,-0.3836580365896225,-37.1416244506836,L,False,True,1,L,100,,0.243,RightResponse,incorrect,True,9.0
60,75,760.3686666666666,2246,760.307,760.315,760.323,0.7599565677655162,71.71533164975813,0.7596847712993622,71.67274475097656,0.6580543965101242,56.45122146606445,0.0203232169151306,2.4711239337921143,-0.0076223835349082,0.7160422801971436,L,False,True,1,R,50,,0.27,LeftResponse,incorrect,True,7.0
61,77,767.7296666666667,10717,767.716,767.724,767.729,0.379785171005162,40.237625747944655,-0.3328369855880737,-33.23739242553711,-0.3328388705849647,-33.353031158447266,-0.182910680770874,-22.67911529541016,-0.0508158355951309,-5.104681015014648,L,False,True,1,R,0,,0.252,LeftResponse,incorrect,True,17.0
62,78,771.8646666666667,2271,771.805,771.813,771.821,0.7448304605165099,68.01294387778464,0.7088699787855148,65.69047546386719,0.5919963717460632,52.3631477355957,-0.2286389470100402,-17.621633529663086,-0.0990907587110996,-6.190272808074951,L,False,True,1,L,50,,0.213,LeftResponse,correct,True,10.0
63,79,775.8606666666667,10732,775.449,775.458,775.462,0.8229672655399222,78.95868076806234,-0.5716740787029266,-52.24761962890625,-0.5488071739673615,-36.42558670043945,-0.591999888420105,-59.20016479492188,-0.3785768300294876,-30.373994827270508,L,False,True,1,L,400,,0.211,RightResponse,incorrect,True,15.0
64,80,999.5176666666666,6792,999.445,999.454,999.464,1.1277352000780092,92.58897654245072,0.0711399912834167,1.7554205656051636,0.0203262567520141,-2.332904100418091,1.125489130616188,92.57233428955078,0.9780384302139282,103.57991027832033,L,False,True,2,R,50,,0.23,LeftResponse,incorrect,True,9.0
65,81,1004.7636666666667,2725,1004.355,1004.362,1004.368,0.5355194983880971,53.260779532226,0.533563032746315,53.03305816650391,0.4446363747119903,40.92966079711914,0.045734267681837,4.919896125793457,-0.1168764266185462,-9.44713306427002,L,False,True,2,R,400,,0.392,RightResponse,correct,True,18.0
66,82,1009.9426666666667,2731,1009.73,1009.737,1009.742,0.3618333759658511,37.84184122593338,0.3582473120186478,37.83416366577149,0.4370123818516731,35.20144271850586,0.0508158970624208,0.7622382044792175,-0.0101630240678787,0.0923919081687927,L,False,True,2,L,200,,0.4,LeftResponse,correct,True,17.0
67,85,1020.7466666666667,2752,1020.687,1020.695,1020.702,0.6169779272485714,55.40880594251596,0.6072286562994123,54.27889251708984,0.7596801817417145,73.72782135009766,0.1092479825019836,11.132726669311523,-0.0076223015785217,-2.65626072883606,L,False,True,2,R,50,,0.317,RightResponse,correct,True,11.0
68,86,1025.6936666666666,2760,1025.684,1025.686,1025.69,0.1190913762827897,14.615351976659143,0.1168753653764724,14.551677703857422,0.0,2.379084348678589,0.0228671133518219,1.3627873659133911,0.0508157238364219,4.296237468719482,L,True,False,2,R,0,,0.309,RightResponse,correct,True,20.0
69,87,1029.5776666666666,2768,1029.365,1029.37,1029.371,0.1311607565492629,18.193716359549647,0.121958035044372,12.057212829589844,0.0711422353051602,5.774532794952393,0.048263669013977,13.624791145324709,0.0914675593376159,16.191543579101562,L,False,True,2,R,200,,0.322,LeftResponse,incorrect,True,16.0
70,88,1034.6276666666665,11255,1034.615,1034.622,1034.627,0.3698910579041626,37.40234949397045,-0.3684133812785148,-37.095489501953125,-0.3582433834671974,-42.33784866333008,0.0330299139022827,4.781255722045898,-0.0482745915651321,-2.679360866546631,L,False,True,2,R,0,,0.267,RightResponse,correct,True,19.0
71,89,1038.6496666666665,2780,1038.637,1038.643,1038.649,0.4377291330671161,49.31566777398379,0.4344650581479072,49.0361442565918,0.3582491911947727,33.63044357299805,0.0533564165234565,5.2432475090026855,-0.0813040882349014,-6.582835674285889,L,False,True,2,L,0,,0.33,LeftResponse,correct,True,18.0
72,90,1042.1176666666665,11267,1041.705,1041.714,1041.72,0.8775718790195727,84.49736498091195,-0.8130393028259277,-79.08679962158203,-0.8663941621780396,-86.10843658447266,0.3303021267056465,29.750341415405277,0.3048946410417557,29.242197036743164,L,False,True,2,R,400,,0.205,RightResponse,correct,True,17.0
73,91,1047.3766666666666,2786,1047.263,1047.269,1047.277,0.3680181150017954,32.38234688084085,0.350626952946186,31.320919036865234,0.3582499772310257,30.00442695617676,0.1117947800084948,8.222920417785645,0.0813026428222656,4.827298164367676,L,False,True,2,L,100,,0.399,NoResponse,incorrect,True,15.0
74,93,1056.0986666666665,11294,1056.088,1056.094,1056.101,0.4320515955307199,43.52745549509335,-0.4319320470094681,-43.51664352416992,-0.5106964111328125,-50.23822784423828,0.0101630687713623,-0.9701125025749208,-0.0177854597568511,-2.0557243824005127,L,False,True,2,R,0,,0.281,RightResponse,correct,True,17.0
75,94,1059.4496666666666,2815,1059.437,1059.446,1059.452,0.5914316482569324,55.82870662805798,0.5894587188959122,55.8277702331543,0.5005325078964233,50.307395935058594,-0.0482681393623352,0.3233489692211151,-0.1295771449804306,-24.667932510375977,L,False,True,2,L,0,,0.25,LeftResponse,correct,True,16.0
76,96,1065.0326666666665,6900,1064.816,1064.826,1064.834,0.8754555766789199,76.26172057622962,0.1067117601633071,17.161502838134766,0.0025407932698726,10.809874534606934,0.868927538394928,74.30567169189453,0.8079591393470764,65.57511138916016,L,False,True,2,L,200,,0.213,LeftResponse,correct,True,19.0
77,98,1073.5306666666665,11346,1073.404,1073.411,1073.417,0.6939254112297243,76.87124539873987,-0.693627655506134,-76.84675598144531,-0.6478936225175858,-60.16999816894531,-0.0203261375427246,-1.94022274017334,0.0889243483543396,18.270143508911133,L,False,True,2,L,100,,0.224,LeftResponse,correct,True,17.0
78,99,1076.7196666666666,15793,1076.308,1076.313,1076.32,0.5318951058455772,54.02568407384515,-0.1651512363459915,-23.791046142578125,-0.0457340329885482,-10.30173397064209,-0.5056060450151563,-48.50526428222656,-0.4446342810988426,-43.05447006225586,L,False,True,2,L,400,,0.235,LeftResponse,correct,True,16.0
79,100,1080.0006666666666,11361,1079.889,1079.897,1079.9,0.5391950861258052,55.913556066936536,-0.2896488066762686,-23.07497787475586,-0.1422843746840953,-5.705238342285156,-0.4547910615801811,-50.93006134033203,-0.3226767666637897,-32.036808013916016,L,False,True,2,R,100,,0.218,LeftResponse,incorrect,True,16.0
80,101,1083.7596666666666,11367,1083.75,1083.753,1083.757,0.1808928076811521,22.21083679487152,-0.1575288921594619,-20.0029354095459,-0.0584378391504287,-7.483736515045166,0.0889205038547515,9.654213905334473,0.1168764447793364,11.710745811462402,L,False,True,2,R,0,,0.362,RightResponse,correct,True,15.0
81,102,1088.9436666666666,11378,1088.731,1088.738,1088.744,0.4776932283639525,46.70405913558018,-0.4776661992073059,-46.5887451171875,-0.424308069050312,-40.30572509765625,-0.0050815902650356,-3.2799341678619385,0.0838461238890886,9.054443359375,L,False,True,2,L,200,,0.29,RightResponse,incorrect,True,18.0
82,103,1092.8406666666665,2916,1092.78,1092.786,1092.792,0.599885772256339,69.55014468730565,0.5996220707893372,69.54793548583984,0.5462667644023895,53.5180892944336,-0.0177851617336273,0.5543425679206848,-0.0787645736709237,-3.557107925415039,L,False,True,2,R,50,,0.318,LeftResponse,incorrect,True,10.0
83,104,1098.6356666666666,11395,1098.224,1098.231,1098.236,0.3387635111148447,36.55960248966636,-0.3074345551431179,-33.12260818481445,-0.3582480698823929,-35.732444763183594,0.142283909022808,15.475702285766602,0.127034842967987,7.044692039489746,L,False,True,2,L,400,,0.222,RightResponse,incorrect,True,15.0
84,105,1105.3636666666666,2936,1105.253,1105.262,1105.269,0.6709758429153179,65.1903340705435,0.6402493715286255,62.19994735717773,0.5716723650693893,47.97451019287109,0.2007220068480819,19.51784324645996,0.0635172426700592,8.776939392089844,L,False,True,2,R,100,,0.304,LeftResponse,incorrect,True,19.0
85,107,1113.4906666666666,11430,1113.281,1113.288,1113.293,0.4996019595920329,48.58064524472691,-0.3074348866939544,-26.49344253540039,-0.2058031056076288,-16.006967544555664,-0.3938094824552536,-40.7207145690918,-0.1651462018489837,-14.805377960205078,L,False,True,2,R,200,,0.223,RightResponse,correct,True,21.0
86,108,1117.7456666666665,11436,1117.634,1117.641,1117.647,0.5379536047796004,57.308398810070486,-0.533561646938324,-57.19060134887695,-0.4344708397984504,-42.73097229003906,0.0686006546020507,3.6725592613220215,0.0279485285282135,4.22691535949707,L,False,True,2,R,100,,0.326,LeftResponse,incorrect,True,22.0
87,109,1123.2376666666667,2974,1123.026,1123.035,1123.041,0.6261469828705547,63.032614023850805,0.5995980352163315,59.01226043701172,0.4370144009590149,34.11573028564453,0.1803946793079376,22.15092658996582,0.1270396672189235,16.930923461914062,L,False,True,2,L,200,,0.386,RightResponse,incorrect,True,20.0
88,112,1136.4056666666665,11480,1136.342,1136.346,1136.351,0.203279231552201,23.8916187604442,-0.1931001991033554,-21.06547737121582,-0.2896444201469421,-32.42906951904297,0.0635197535157203,11.271872520446776,-0.073681354522705,-7.945586681365967,L,False,True,2,R,50,,0.384,LeftResponse,incorrect,True,16.0
89,114,1143.5456666666666,11512,1143.434,1143.44,1143.444,0.3467411692136947,39.58409044895714,-0.3150485455989837,-35.54703903198242,-0.4014437347650528,-38.319610595703125,-0.1448235213756561,-17.415746688842773,-0.1727718636393547,-17.669872283935547,L,False,True,2,R,100,,0.362,RightResponse,correct,True,25.0
90,116,1149.2786666666666,11525,1149.257,1149.266,1149.272,0.943128752549858,100.10421214105992,-0.9400441646575928,-100.10382843017578,-0.6478956639766693,-72.55060577392578,0.0762155652046203,-0.2771678268909454,0.2921901792287826,28.295116424560547,L,False,True,2,L,0,,0.235,RightResponse,incorrect,True,14.0
91,117,1152.6136666666666,7082,1152.198,1152.206,1152.213,0.8171765814380825,84.56856350338761,0.1651508808135986,22.867042541503903,0.2362917736172676,27.786924362182617,0.8003141582012177,81.41830444335938,0.7190350592136383,73.75164031982422,L,False,True,2,R,400,,0.201,LeftResponse,incorrect,True,17.0
92,118,1155.3246666666666,11534,1155.112,1155.119,1155.125,0.4982124771233944,52.37149089916737,-0.4751257300376892,-49.73005294799805,-0.381111778318882,-38.34222030639648,0.1499040126800537,16.42238998413086,0.2921875268220901,24.52996826171875,L,False,True,2,R,200,,0.213,RightResponse,correct,True,23.0
93,119,1160.4406666666666,3064,1160.43,1160.436,1160.441,0.3774452295891798,41.85388484093345,0.3506241980940103,39.173805236816406,0.3023511935025453,33.26088333129883,0.1397410929203033,14.736371994018556,0.0863858610391616,9.562496185302734,L,False,True,2,L,0,,0.331,LeftResponse,correct,True,17.0
94,120,1280.8676666666665,3277,1280.457,1280.462,1280.469,0.514640623230612,58.19612406909648,0.5132274865172803,58.044090270996094,0.4395552426576614,42.43111038208008,0.0381119162775576,4.203860282897949,-0.0508123338222503,-2.609910488128662,L,False,True,3,L,400,,0.324,LeftResponse,correct,True,20.0
95,121,1283.6186666666665,11773,1283.407,1283.41,1283.415,0.235413551766453,27.305545039171207,-0.1930952817201614,-23.674957275390625,-0.1651514917612075,-17.3466796875,-0.1346616223454475,-13.604748725891112,0.0635187923908233,6.813831806182861,L,False,True,3,R,200,,0.222,RightResponse,correct,True,22.0
96,122,1288.2736666666665,3285,1288.162,1288.17,1288.177,0.5114489460416697,45.60629566379304,0.4522589594125747,41.39173126220703,0.4471740312874317,44.34769821166992,0.238834373652935,19.14833641052246,0.0254073441028594,3.118151426315308,L,False,True,3,R,100,,0.268,RightResponse,correct,True,24.0
97,124,1297.6456666666666,3304,1297.632,1297.638,1297.643,0.3172002190732708,32.28597474301349,0.2413739049807191,25.08444595336914,0.3531687781214714,41.92294692993164,-0.2058023735880851,-20.326208114624023,-0.2464474439620971,-23.466936111450195,L,False,True,3,R,0,,0.334,LeftResponse,incorrect,True,16.0
98,125,1300.8966666666665,11802,1300.888,1300.896,1300.901,0.6273169859435788,64.13644743434263,-0.6097621768712997,-62.315242767333984,-0.6377314478158951,-57.952274322509766,-0.1473658322356641,-15.175454139709473,0.0660606147721409,-0.6005503535270691,L,False,True,3,L,0,,0.313,RightResponse,incorrect,True,19.0
99,128,1313.2376666666667,11820,1312.825,1312.832,1312.838,0.6040371825924458,58.73096734459826,-0.5945363491773605,-58.3450813293457,-0.5792927443981171,-67.2840576171875,0.1067119836807251,6.721458911895752,0.2921902164816856,27.093965530395508,L,False,True,3,L,400,,0.273,LeftResponse,correct,True,19.0
100,129,1315.9976666666666,11826,1315.937,1315.944,1315.95,0.4306596437211962,43.333353502547176,-0.4243099838495254,-42.61582565307617,-0.3912794217467308,-36.17148971557617,-0.0736801624298095,-7.853084087371826,0.083846129477024,7.483777046203613,L,False,True,3,L,50,,0.304,LeftResponse,correct,True,19.0
101,130,1319.4286666666665,3342,1319.317,1319.323,1319.329,0.4002813224533211,40.81431242534673,0.350628450512886,34.36995315551758,0.1727739050984382,18.478498458862305,0.193092793226242,22.011688232421875,0.0863869583699852,9.631917953491213,L,False,True,3,R,100,,0.322,RightResponse,correct,True,22.0
102,131,1323.5586666666666,3346,1323.545,1323.552,1323.558,0.4609742783866979,47.37204605422655,0.4293917864561081,44.74091720581055,0.3607915192842483,40.51400375366211,0.1676901280879974,15.567950248718262,0.0584374219179153,2.1711912155151367,L,False,True,3,R,0,,0.357,RightResponse,correct,True,22.0
103,132,1328.2296666666666,11840,1328.018,1328.026,1328.036,0.7115549399598722,55.99266349069936,-0.69869664311409,-54.3720817565918,-0.6935942806303501,-62.3391227722168,-0.1346604377031326,-13.373671531677246,0.0584382358938455,-4.342442512512207,L,False,True,3,R,200,,0.334,RightResponse,correct,True,21.0
104,133,1331.1236666666666,11848,1330.912,1330.918,1330.925,0.4825551228615333,49.59432244754715,-0.4776545092463493,-48.412330627441406,-0.3048946410417557,-27.763914108276367,-0.0685974955558776,-10.763041496276855,0.1829362474381923,15.198379516601562,L,False,True,3,L,200,,0.211,RightResponse,incorrect,True,20.0
105,134,1334.3166666666666,11851,1333.903,1333.909,1333.914,0.3630232245987169,38.60892797677138,-0.3074271082878113,-31.689678192138672,-0.1600689738988876,-18.57076072692871,0.1930658817291259,22.054786682128903,0.0508156791329383,3.210622310638428,L,False,True,3,R,400,,0.227,LeftResponse,incorrect,True,18.0
106,135,1336.7356666666665,7353,1336.672,1336.679,1336.686,0.7159071556869286,68.83042980893512,0.370951403863728,38.78140640258789,0.2845655456185341,32.22133255004883,0.6123055703938007,56.865020751953125,0.5157608687877655,45.84804534912109,L,False,True,3,L,50,,0.202,LeftResponse,correct,True,18.0
107,136,1339.6376666666665,3373,1339.226,1339.233,1339.24,0.6945407016223117,49.73585107920832,0.3506281748414039,25.615753173828125,0.442094586789608,40.51387786865234,0.5995387136936188,42.63200759887695,0.6122860908508301,47.85621643066406,L,False,True,3,R,400,,0.204,RightResponse,correct,True,21.0
108,139,1353.4016666666666,3398,1353.191,1353.198,1353.205,0.729215803505427,79.38979987708771,0.7291980981826782,79.06414794921875,0.8206451237201691,66.15019226074219,0.0050815045833587,7.183372020721436,-0.1346588879823684,-2.3328654766082764,L,False,True,3,R,200,,0.378,RightResponse,correct,True,23.0
109,141,1360.1416666666667,11906,1360.03,1360.037,1360.043,0.5847663617473592,60.35592875625507,-0.5843190848827362,-60.30242538452149,-0.490365631878376,-49.752742767333984,0.0228671133518219,2.540792942047119,0.1092512458562851,15.86790370941162,L,False,True,3,R,100,,0.201,RightResponse,correct,True,21.0
110,142,1365.0006666666666,3429,1364.592,1364.598,1364.603,0.5023990727405789,50.44010752716684,0.3785695657134056,39.520118713378906,0.462405614554882,50.32843017578125,0.3302876204252243,31.342697143554688,0.2337525710463524,16.76923179626465,L,False,True,3,L,400,,0.317,LeftResponse,correct,True,20.0
111,143,1368.1106666666665,11916,1367.698,1367.704,1367.709,0.7404831711231747,77.79262773811453,-0.4547851383686065,-46.841251373291016,-0.429380290210247,-45.871681213378906,-0.5843678675591946,-62.109500885009766,-0.4268500357866287,-42.26928329467773,L,False,True,3,R,400,,0.219,RightResponse,correct,True,19.0
112,145,1375.9126666666666,3453,1375.851,1375.859,1375.867,0.576400669894731,53.05047226955187,0.5716717094182968,52.663230895996094,0.4598751217126846,39.82052230834961,0.0736830299720168,6.398180961608887,0.0177853107452392,1.1086957454681396,L,False,True,3,R,50,,0.325,RightResponse,correct,True,17.0
113,146,1378.6316666666667,16361,1378.574,1378.579,1378.586,0.6899045984757056,72.55700682742821,-0.4852887988090515,-55.134986877441406,-0.6554361283779144,-76.6309814453125,-0.4903704077005386,-47.16622161865234,-0.1600697813555598,-13.72027587890625,L,False,True,3,L,50,,0.239,RightResponse,incorrect,True,16.0
114,147,1382.5746666666666,3474,1382.462,1382.468,1382.474,0.6845425377342161,67.82852034470945,0.477644145488739,52.106693267822266,0.4624204039573669,45.29505920410156,-0.490361658623442,-43.42350387573242,-0.4573401659727096,-41.34553909301758,L,False,True,3,R,100,,0.26,RightResponse,correct,True,20.0
115,148,1386.1466666666665,11950,1386.085,1386.091,1386.097,0.398821925162694,42.5132515985412,-0.2845653742551803,-26.192947387695312,-0.4217698127031326,-42.31564331054688,-0.279430627822876,-33.48590850830078,-0.1727730445563793,-13.419930458068848,L,False,True,3,R,50,,0.349,RightResponse,correct,True,19.0
116,149,1389.9936666666665,3488,1389.933,1389.94,1389.945,0.4002809438027829,42.90702627390448,0.3760340623557567,41.06821823120117,0.3099752701818943,27.74060440063477,-0.137197732925415,-12.42635726928711,-0.1143352873623371,-9.95525360107422,L,False,True,3,L,50,,0.265,LeftResponse,correct,True,18.0
117,150,1392.9076666666665,7439,1392.495,1392.503,1392.51,0.7651986946398688,69.4900309951924,0.6605902165174484,63.333763122558594,0.5945386439561844,54.4188232421875,0.3861989229917526,28.595434188842773,0.2591529339551925,19.886842727661133,L,False,True,3,L,400,,0.335,LeftResponse,correct,True,18.0
118,152,1404.2276666666667,11975,1404.216,1404.22,1404.225,0.6991975489303297,77.71122411619321,-0.256619855761528,-32.66070938110352,-0.2540789023041725,-29.56555557250977,-0.6504025384783745,-70.5146255493164,-0.1727739125490188,-18.7094783782959,L,False,True,3,R,0,,0.26,RightResponse,correct,True,20.0
119,153,1406.8716666666667,3514,1406.858,1406.866,1406.872,0.6934822428207422,70.17765828929845,0.48781219124794,51.04521560668945,0.3658719807863235,39.22027587890625,0.4929065704345703,48.15900421142578,0.3480686545372009,24.43661880493164,L,False,True,3,L,0,,0.223,LeftResponse,correct,True,19.0
120,154,1410.4356666666665,11991,1410.026,1410.033,1410.039,0.4655227430031436,47.43292139997521,-0.4649607762694359,-47.28141784667969,-0.4446358382701874,-44.27881240844727,0.0228670239448547,-3.788081169128418,0.0711422050371766,4.2962493896484375,L,False,True,3,R,400,,0.228,RightResponse,correct,True,17.0
121,155,1414.1536666666666,12008,1414.141,1414.153,1414.16,1.4662751523609976,128.01464574622395,-1.4506608843803406,-126.7732391357422,-1.6335438787937164,-144.4949188232422,-0.2134146690368652,-17.78469467163086,-0.1397244334220886,-16.489704132080078,L,False,True,3,L,0,,0.353,LeftResponse,correct,True,18.0
122,156,1417.7256666666665,12015,1417.613,1417.618,1417.623,0.4095878648881944,44.75881852768306,-0.3252184349112212,-35.73243713378906,-0.2388339266180992,-27.44051170349121,-0.2489883303642273,-26.95449447631836,-0.03557112487033,-11.8262357711792,L,False,True,3,L,100,,0.352,LeftResponse,correct,True,19.0
123,157,1422.7636666666665,12024,1422.55,1422.553,1422.557,0.1605731616300555,17.88373878503473,-0.1600698307156562,-17.85483741760254,-0.2362935692071914,-29.17290496826172,-0.0127039179205894,-1.0163137912750244,0.0660605207085609,8.915862083435059,L,False,True,3,L,200,,0.379,LeftResponse,correct,True,22.0
124,159,1429.4036666666666,12045,1429.191,1429.198,1429.205,0.5247333751036889,52.58122360868895,-0.5132338777184486,-50.81541061401367,-0.4801971539855003,-52.20025253295898,0.1092524677515029,13.512184143066406,0.259157232940197,17.623525619506836,L,False,True,3,L,200,,0.327,LeftResponse,correct,True,21.0
125,161,1537.1066666666666,16712,1537.096,1537.103,1537.111,0.6665954510084441,59.37416571281297,0.4776612669229507,47.11960220336914,0.5284808874130249,50.97731018066406,-0.464961513876915,-36.12526321411133,-0.3582447543740272,-33.97678756713867,L,False,True,4,R,0,,0.221,LeftResponse,incorrect,True,17.0
126,162,1540.9996666666666,12333,1540.787,1540.792,1540.797,0.2879244723528844,31.37122630645654,-0.2769416570663452,-30.88168716430664,-0.2896499931812286,-28.780235290527344,-0.078764334321022,-5.520438194274902,0.0101629197597503,0.138585940003395,L,False,True,4,L,200,,0.318,LeftResponse,correct,True,20.0
127,163,1545.6376666666665,3796,1545.424,1545.432,1545.438,0.3811910025402041,34.22632322399835,0.381114786490798,34.161720275878906,0.3989017903804779,34.531578063964844,0.0076223313808441,2.1019203662872314,-0.043193370103836,-5.104672431945801,L,False,True,4,R,200,,0.371,RightResponse,correct,True,19.0
128,164,1549.2806666666665,12347,1549.219,1549.225,1549.23,0.4018124892551332,46.62287739916356,-0.3785770535469055,-44.232791900634766,-0.3074354529380798,-34.62404251098633,-0.1346576809883117,-14.736105918884276,-0.0558973550796508,-8.22291374206543,L,False,True,4,R,50,,0.21,LeftResponse,incorrect,True,17.0
129,165,1553.6226666666666,3807,1553.563,1553.569,1553.575,0.4758036164242665,55.14308148143809,0.4751247465610504,54.76522445678711,0.2998130768537521,30.397092819213867,0.0254078060388565,6.444348335266113,-0.1295772194862365,-13.58134651184082,L,False,True,4,L,50,,0.357,RightResponse,incorrect,True,20.0
130,168,1566.7166666666665,12382,1566.704,1566.71,1566.717,0.3836917768664425,37.00339062144807,-0.3836581259965896,-36.97996139526367,-0.4395540356636047,-39.821022033691406,-0.0050815343856811,1.31657612323761,0.0203263089060783,4.273146152496338,L,False,True,4,L,0,,0.241,RightResponse,incorrect,True,20.0
131,169,1570.0676666666666,12389,1569.955,1569.96,1569.965,0.2691902553972612,28.979454934584403,-0.256618071347475,-27.97159767150879,-0.3277616500854492,-37.53438186645508,-0.0813053445890545,-7.576181888580322,-0.0025407373905181,-0.2078763246536255,L,False,True,4,L,100,,0.357,LeftResponse,correct,True,18.0
132,170,1572.8656666666666,12393,1572.741,1572.747,1572.753,0.6039281281381668,58.50998307458377,-0.472576801199466,-48.99003219604492,-0.5157744213938713,-49.937744140625,-0.3760323801543563,-31.99054336547852,-0.2998131215572357,-31.15933609008789,L,False,True,4,R,100,,0.279,RightResponse,correct,True,17.0
133,171,1575.7886666666666,12396,1575.775,1575.782,1575.787,0.495521951247552,53.17729063153538,-0.4929094910621643,-53.14830780029297,-0.5310154184699059,-60.19278335571289,0.0508157238364219,1.7554534673690796,-0.0863866060972213,-7.506853580474853,L,False,True,4,R,0,,0.231,LeftResponse,incorrect,True,23.0
134,172,1578.7116666666666,7744,1578.648,1578.653,1578.66,0.6347828312731557,69.83559538284354,0.2083449512720108,22.312780380249023,0.1753134503960609,22.91311264038086,0.5996178984642029,66.1751480102539,0.5030438750982285,48.526329040527344,L,False,True,4,L,50,,0.358,LeftResponse,correct,True,23.0
135,173,1581.7376666666667,12411,1581.626,1581.633,1581.638,0.4591207685780105,47.33149933903093,-0.4141474962234497,-42.45416641235352,-0.5513441562652588,-60.239402770996094,-0.1981760114431381,-20.926408767700195,-0.1397328376770019,-20.87924194335937,L,False,True,4,L,100,,0.223,RightResponse,incorrect,True,16.0
136,174,1585.0226666666665,12419,1584.96,1584.969,1584.974,0.5335614234209061,47.88589709235619,-0.5335614234209061,-47.8818359375,-0.4751241654157638,-51.69331741333008,0.0,0.6236405968666077,0.0203258991241455,-4.504043102264404,L,False,True,4,R,50,,0.255,RightResponse,correct,True,22.0
137,175,1588.5326666666665,12429,1588.123,1588.132,1588.137,0.5647388764535243,50.63652079160874,-0.5564254522323608,-49.729942321777344,-0.7088610678911209,-73.3350830078125,0.0965438485145568,9.53887176513672,0.3124860525131225,29.308788299560547,L,False,True,4,R,400,,0.223,LeftResponse,incorrect,True,16.0
138,176,1593.5746666666666,12436,1593.511,1593.522,1593.528,0.5426744848348987,54.19107177278801,-0.5386387705802917,-53.40165328979492,-0.630097396671772,-36.40031051635742,-0.0660596042871475,-9.216055870056152,-0.1372025730088353,2.355994462966919,L,False,True,4,L,50,,0.29,LeftResponse,correct,True,21.0
139,178,1600.1026666666667,3892,1600.091,1600.098,1600.105,0.5249742225179551,54.47965685228867,0.5233979523181915,54.46484375,0.4675019681453705,44.74077987670898,-0.0406511723995208,1.2703566551208496,-0.13466177880764,-7.760965824127197,L,False,True,4,L,0,,0.373,RightResponse,incorrect,True,26.0
140,179,1603.5796666666665,12457,1603.168,1603.175,1603.18,0.4897637998091121,55.20623333679269,-0.4852887541055679,-53.702903747558594,-0.3836584091186523,-36.44877243041992,-0.0660560727119445,-12.79555892944336,0.0940091349184513,9.932177543640137,L,False,True,4,L,400,,0.391,LeftResponse,correct,True,22.0
141,180,1607.5556666666666,16882,1607.434,1607.443,1607.454,1.48305931499114,116.6875999962087,-0.1905574724078178,-16.97696304321289,-0.0254078060388565,2.9565374851226807,-1.4707660526037216,-115.4459991455078,-1.1710632592439651,-104.4814682006836,L,False,True,4,R,100,,0.345,NoResponse,incorrect,True,19.0
142,183,1622.4766666666665,12498,1622.068,1622.073,1622.08,0.3802333952701719,41.06812236253014,-0.3785658925771713,-40.74382400512695,-0.2667776048183441,-25.19958877563477,-0.0355710536241531,-5.150871753692627,-0.0152438580989837,0.0692904666066169,L,False,True,4,L,400,,0.325,LeftResponse,correct,True,21.0
143,184,1625.5406666666665,12505,1625.479,1625.485,1625.49,0.3353933142434559,37.173971568805605,-0.3277616649866104,-36.77214431762695,-0.2820242419838905,-31.08967018127441,-0.0711404681205749,-5.451014995574951,0.1092533618211746,10.13999366760254,L,False,True,4,R,50,,0.288,LeftResponse,incorrect,True,20.0
144,185,1628.7596666666666,7818,1628.693,1628.701,1628.707,0.7119896957793383,63.57329606117287,0.2388338036835193,23.814022064208984,0.073681354522705,8.476851463317871,0.6707367151975632,58.94451904296875,0.3277569375932216,34.623619079589844,L,False,True,4,L,50,,0.252,LeftResponse,correct,True,23.0
145,187,1637.5646666666667,7829,1637.148,1637.156,1637.163,0.4449191638465696,34.69667622663162,0.1067120432853698,11.710663795471191,0.0101630389690399,5.173879146575928,0.4319324046373367,32.660675048828125,0.4370088493451476,33.09900665283203,L,False,True,4,R,400,,0.36,LeftResponse,incorrect,True,20.0
146,188,1640.8286666666665,16953,1640.768,1640.774,1640.781,0.4213757586008048,37.26665030946141,-0.2134256018325686,-22.197179794311523,-0.2032624222338199,-23.421396255493164,-0.3633277341723442,-29.93473625183105,-0.1803946793079376,-8.731019973754883,L,False,True,4,R,50,,0.331,RightResponse,correct,True,22.0
147,189,1643.8556666666666,7842,1643.648,1643.655,1643.668,1.172971618694611,102.87779191174695,-0.4929107278585434,-82.04301452636719,-0.4852454662322998,-80.51687622070312,1.0643784254789352,62.070796966552734,0.7976630330085754,77.68631744384766,L,False,True,4,L,200,,0.238,RightResponse,incorrect,True,21.0
148,190,1647.7106666666666,7849,1647.697,1647.704,1647.712,0.9014661953870458,82.79805521489055,0.2744044214487076,28.433740615844727,0.3480865508317947,38.48115158081055,0.858687087893486,77.7627182006836,0.4801735132932663,38.40877532958984,L,False,True,4,L,0,,0.221,LeftResponse,correct,True,29.0
149,191,1652.1946666666665,12557,1652.084,1652.093,1652.099,0.5152666528262367,43.0821763197297,-0.4116001669317484,-35.108726501464844,-0.6224886476993561,-65.92162322998047,0.3099758476018905,24.9690055847168,0.2362933382391929,19.54096031188965,L,False,True,4,R,100,,0.388,RightResponse,correct,True,22.0
150,192,1656.5126666666665,3993,1656.401,1656.41,1656.416,0.8423209947878492,84.58415025539644,0.7418771013617516,74.32569885253906,0.4929057322442531,51.11486053466797,0.3989022746682167,40.37535095214844,0.0660604909062385,10.00147533416748,L,False,True,4,L,100,,0.368,LeftResponse,correct,True,21.0
151,193,1659.6016666666665,16993,1659.395,1659.399,1659.406,0.6043005500406464,57.99386733746428,-0.4903693497180938,-47.812782287597656,-0.2769455425441265,-27.69453430175781,-0.3531530201435089,-32.821128845214844,-0.0736830458045005,-8.269131660461426,L,False,True,4,L,200,,0.313,LeftResponse,correct,True,24.0
152,194,1663.0286666666666,4005,1663.016,1663.026,1663.036,0.713995499169516,51.35142035471132,0.7139231730252504,50.51350021362305,0.5996088720858097,51.138427734375,0.0101624727249145,9.23875904083252,0.0381118617951869,6.282681465148926,L,False,True,4,R,0,,0.358,LeftResponse,incorrect,True,28.0
153,197,1678.4956666666665,4028,1678.083,1678.09,1678.096,0.6024618407454064,63.18630768412429,0.5462638139724731,57.88319396972656,0.2261267304420471,24.66838264465332,0.2540789544582367,25.33861351013184,0.1626104009337723,14.967570304870604,L,False,True,4,L,400,,0.378,LeftResponse,correct,True,23.0
154,198,1682.1756666666665,12602,1681.962,1681.968,1681.972,0.323568600583847,37.04286323479528,-0.3125167787075043,-35.409332275390625,-0.2007225975394249,-24.2761173248291,-0.0838445127010345,-10.87901210784912,-0.1117938011884689,-11.248663902282717,L,False,True,4,R,200,,0.313,RightResponse,correct,True,23.0
155,199,1685.7306666666666,4043,1685.62,1685.629,1685.637,0.8615493980605973,67.9201756890451,0.8460645973682404,67.76912689208984,0.7063314020633698,72.87391662597656,0.1626101545989513,4.527218341827393,0.0686010047793388,-4.989171028137207,L,False,True,4,L,100,,0.317,LeftResponse,correct,True,20.0
156,200,1777.6546666666666,12750,1777.641,1777.65,1777.658,1.0450844580516176,95.8201112387561,-0.8358566984534264,-74.92515563964844,-0.9044984579086304,-85.62310028076172,0.6273317337036133,59.730350494384766,0.9192797541618348,74.42277526855469,L,False,True,5,R,0,,0.221,LeftResponse,incorrect,True,31.0
157,201,1780.5776666666666,8027,1780.561,1780.568,1780.575,0.8434611669158689,84.7305654735882,0.2515361681580543,33.861427307128906,0.2718584835529327,35.54681396484375,0.8050815463066101,77.67028045654297,0.5918796062469482,61.9583854675293,L,False,True,5,L,0,,0.236,LeftResponse,correct,True,34.0
158,202,1784.4366666666665,8035,1784.325,1784.331,1784.339,0.7429162327482277,70.87068843879128,0.3404655158519745,33.330543518066406,0.3709545284509659,42.5927848815918,0.660308837890625,62.54381942749024,0.3886380791664123,27.54813766479492,L,False,True,5,L,100,,0.222,LeftResponse,correct,True,19.0
159,203,1789.4456666666665,4190,1789.033,1789.04,1789.046,0.4470668548687837,43.52707570260728,0.4090656340122223,40.74490737915039,0.3099761754274368,34.04657745361328,0.1803720593452453,15.31204891204834,0.157527208328247,12.403552055358888,L,False,True,5,R,400,,0.333,RightResponse,correct,True,22.0
160,204,1795.0036666666665,4199,1794.99,1794.997,1795.004,0.3536834502128514,28.548218513665734,0.3226800858974457,26.67831420898437,0.3125168830156326,32.614505767822266,0.1448086500167846,10.162102699279783,0.0990906171500682,7.114192962646484,L,False,True,5,L,0,,0.25,LeftResponse,correct,True,33.0
161,206,1802.6096666666665,12794,1802.197,1802.203,1802.209,0.4409032201133476,47.001859402922165,-0.4370145797729492,-46.98143005371094,-0.3175967745482921,-32.891510009765625,0.0584286451339721,1.385646939277649,0.0812970995903015,3.325766563415528,L,False,True,5,R,400,,0.282,RightResponse,correct,True,21.0
162,207,1805.8866666666665,12799,1805.676,1805.682,1805.688,0.5498330434651191,60.361792382789886,-0.3963622003793716,-45.38766479492188,-0.182935744524002,-21.85067367553711,-0.3810687363147735,-39.79328918457031,-0.180391639471054,-16.86122703552246,L,False,True,5,L,200,,0.277,LeftResponse,correct,True,22.0
163,208,1811.3156666666666,12804,1811.256,1811.262,1811.269,0.3752181619356342,39.33617566085435,-0.3684138357639313,-39.33600616455078,-0.3658732175827026,-34.62403869628906,0.0711330771446228,0.1154757291078567,0.0813024342060089,1.5244104862213137,L,False,True,5,L,50,,0.357,RightResponse,incorrect,True,21.0
164,209,1814.9246666666666,17265,1814.806,1814.81,1814.816,0.3445737016134275,38.9881751702096,-0.0330301970243454,-7.322089195251465,0.0381118059158325,2.471487283706665,-0.3429869413375854,-38.29444885253906,-0.2311988174915313,-22.865890502929688,L,False,True,5,R,100,,0.378,RightResponse,correct,True,18.0
165,211,1821.9616666666666,12830,1821.85,1821.858,1821.864,0.5410817629629521,48.426526018576006,-0.5233999341726303,-46.86588668823242,-0.4547989666461944,-46.45009994506836,-0.1371932327747345,-12.194961547851562,0.0711391866207122,4.596357822418213,L,False,True,5,L,100,,0.224,LeftResponse,correct,True,17.0
166,213,1829.1266666666666,4272,1828.915,1828.921,1828.927,0.5486107812406911,62.02550826739681,0.4674970358610153,52.616512298583984,0.3506254234816879,34.92402648925781,0.2870893776416778,32.843055725097656,0.2362794280052185,15.497864723205566,L,False,True,5,L,200,,0.228,RightResponse,incorrect,True,21.0
167,214,1832.3736666666666,8121,1832.164,1832.17,1832.183,0.932924657187512,77.38652003384952,-0.1422829180955886,-35.73273086547852,-0.1600679010152816,-31.73673820495605,0.9220108389854432,68.64288330078125,0.9069533795118332,78.7533187866211,L,False,True,5,R,200,,0.225,RightResponse,correct,True,24.0
168,215,1837.0036666666665,4284,1836.937,1836.947,1836.952,0.4886482510913897,48.91732797772363,0.4674798250198364,47.67134094238281,0.5869068428874016,36.00799560546875,0.1422663927078247,10.97033405303955,-0.0381096601486206,-0.5081267952919006,L,False,True,5,R,50,,0.331,RightResponse,correct,True,24.0
169,216,1840.5716666666665,4293,1840.562,1840.569,1840.576,1.2368590573884604,97.40111484048364,0.3912806063890457,30.81281852722168,0.1473651230335235,24.32195854187012,1.1733370423316956,92.39884948730467,0.6579922586679459,51.04118347167969,L,False,True,5,L,0,,0.214,LeftResponse,correct,True,32.0
170,217,1846.4006666666667,4296,1846.288,1846.294,1846.301,0.5504664695553713,60.62161811675735,0.5182848572731018,57.417911529541016,0.5233808308839798,50.5590934753418,0.1854565739631652,19.446439743041992,0.0101629495620727,-0.1154868751764297,L,False,True,5,L,100,,0.377,LeftResponse,correct,True,16.0
171,219,1853.5236666666665,4310,1853.511,1853.518,1853.525,0.4573431949406993,41.23469662918554,0.457336138933897,41.2296257019043,0.4776666909456253,40.25990676879883,-0.0025404691696166,0.646661102771759,0.0406504273414611,0.8776892423629761,L,False,True,5,R,0,,0.347,RightResponse,correct,True,31.0
172,220,1857.3876666666665,12887,1856.975,1856.981,1856.987,0.6109169109161782,61.92313258734449,-0.5106927379965782,-55.29623794555664,-0.325220838189125,-31.3441104888916,-0.3352795839309692,-27.871139526367188,-0.2718593552708626,-23.79069709777832,L,False,True,5,R,400,,0.391,LeftResponse,incorrect,True,20.0
173,221,1861.7426666666665,12896,1861.331,1861.337,1861.344,0.5893795015001259,64.58814176621914,-0.5818355083465576,-63.75025177001953,-0.5691334009170532,-55.50453186035156,-0.0939980745315551,-10.369833946228027,0.0457320511341095,1.5474987030029297,L,False,True,5,L,400,,0.374,LeftResponse,correct,True,23.0
174,222,1866.4596666666666,4326,1866.4,1866.407,1866.416,0.7255787386351484,64.1613797627647,0.7215642184019089,63.12611770629883,0.7088278606534004,57.11854553222656,0.0762206315994262,11.479369163513184,0.0787558555603027,1.6859796047210691,L,False,True,5,L,50,,0.398,LeftResponse,correct,True,23.0
175,223,1869.9856666666665,4334,1869.872,1869.881,1869.889,0.7512290777816361,63.75395930564099,0.7139448374509811,60.95461654663086,0.6300932364538312,57.16603088378906,0.2337261140346527,18.68427276611328,0.0406518876552581,6.074666976928711,L,False,True,5,L,100,,0.374,LeftResponse,correct,True,15.0
176,224,1873.2336666666665,12921,1872.822,1872.83,1872.835,0.6319452056020061,60.80498536933916,-0.4751222804188728,-47.21189498901367,-0.5513196140527725,-62.68523788452149,-0.4166696071624756,-38.31818389892578,-0.2997895181179046,-28.17771339416504,L,False,True,5,L,400,,0.231,LeftResponse,correct,True,22.0
177,226,1880.7066666666665,12945,1880.646,1880.651,1880.656,0.3160439995554857,35.46430495683436,-0.2871089428663254,-31.921537399291992,-0.3557101488113403,-36.47187805175781,0.1321070194244384,15.450966835021973,0.1956202089786529,20.94762420654297,L,False,True,5,R,50,,0.324,RightResponse,correct,True,22.0
178,227,1884.4206666666666,12952,1884.009,1884.014,1884.018,0.2808175416750355,31.23392722734099,-0.2108857408165931,-22.61305427551269,-0.1168764736503362,-10.83302116394043,-0.185433804988861,-21.545486450195312,-0.101629689335823,-8.846405982971191,L,False,True,5,R,400,,0.281,RightResponse,correct,True,21.0
179,228,1889.4916666666666,4367,1889.278,1889.284,1889.29,0.4049698137670926,42.26430943062167,0.4014403279870748,42.2228889465332,0.4827405111864209,56.35806274414063,0.0533499121665954,1.870695233345032,0.060975968837738,-0.0461943782866001,L,False,True,5,L,200,,0.33,LeftResponse,correct,True,23.0
180,229,1894.3126666666665,4374,1894.3,1894.307,1894.313,0.5357803610422847,56.82126652585385,0.3938215672969818,40.67568206787109,0.3811178207397461,32.68378448486328,0.363270103931427,39.67549896240234,0.1727705150842666,16.768949508666992,L,False,True,5,R,0,,0.382,RightResponse,correct,True,30.0
181,231,1903.5966666666666,4391,1903.385,1903.391,1903.397,0.3116062515131093,30.514137729688432,0.3074352443218231,30.02750968933105,0.4293917864561081,41.068336486816406,0.0508136451244354,5.427823066711426,0.091466799378395,9.608599662780762,L,False,True,5,R,200,,0.38,RightResponse,correct,True,22.0
182,233,1910.5326666666665,13010,1910.47,1910.476,1910.481,0.3828530875169581,40.142732861691805,-0.3684084489941597,-39.08135986328125,-0.3811167702078819,-37.418724060058594,0.1041714996099472,9.169858932495115,0.1600560545921325,17.2528076171875,L,False,True,5,L,50,,0.357,LeftResponse,correct,True,21.0
183,234,1913.2806666666665,13017,1913.17,1913.177,1913.182,0.6671709081047488,67.69221065336137,-0.5310223400592804,-56.01268768310547,-0.5614951476454735,-49.40569305419922,0.4038963913917541,38.01071166992188,0.5766130685806274,51.12652969360352,L,False,True,5,R,100,,0.201,LeftResponse,incorrect,True,14.0
184,235,1917.5606666666665,4417,1917.552,1917.558,1917.563,0.3557137824580819,34.574733190948024,0.3150575682520866,31.066904067993164,0.3430036501958966,33.422630310058594,0.1651394069194793,15.174308776855469,0.1244868040084838,10.139082908630373,L,False,True,5,R,0,,0.386,RightResponse,correct,True,32.0
185,236,1921.2206666666666,13036,1921.009,1921.015,1921.021,0.4398551621913635,47.80129992427108,-0.434473842382431,-47.0969352722168,-0.4446368813514709,-45.41078186035156,-0.0685933232307434,-8.17575454711914,0.0355679988861084,0.5312092900276184,L,False,True,5,L,200,,0.391,LeftResponse,correct,True,21.0
186,237,1924.2136666666665,4438,1924.104,1924.109,1924.115,0.2804196235005655,30.62787518689621,0.2794857434928417,30.512475967407227,0.2972703576087951,27.62520217895508,0.022866666316986,2.6562283039093018,0.0127032995223999,2.101824998855591,L,False,True,5,R,100,,0.321,RightResponse,correct,True,17.0
187,239,1930.9916666666666,13077,1930.93,1930.934,1930.937,0.1996972243030831,24.120155778673112,-0.119416244328022,-14.205230712890623,-0.2489975094795227,-25.9622745513916,-0.1600585579872131,-19.493417739868164,-0.1219541728496551,-13.766027450561523,L,False,True,5,R,50,,0.295,RightResponse,correct,True,20.0
