,trialIndex,targetOnsetTime,Unnamed: 0,startTime,peakVelocityTime,stopTime,amplitude,peakVelocity,saccade_vec_left_x,peak_velocity_vec_left_x,saccade_vec_right_x,peak_velocity_vec_right_x,saccade_vec_left_y,peak_velocity_vec_left_y,saccade_vec_right_y,peak_velocity_vec_right_y,whichEye,otherEyeMissingData,isBinocular,blockId,arrowDirection,latency,blankDuration,fixationDurationInSec,response,result,isSaccade,blankDurationInFrameCount
0,3,276.97266666666667,9722,276.565,276.568,276.571,0.2637601724377381,31.97846475352631,0.0609790049493312,7.391393661499023,0.139742836356163,17.346582412719727,-0.256614476442337,-31.112529754638672,-0.1117946915328502,-11.179472923278809,L,False,True,0,R,400,,0.34,RightResponse,correct,True,22.0
1,4,284.54966666666667,825,284.481,284.486,284.493,0.34633605560785,32.094266639292215,0.3302988894283771,28.687583923339844,0.3226713389158249,20.209997177124023,0.1041696071624755,14.389735221862791,-0.0431934958323836,-2.910364866256714,L,False,True,0,R,50,,0.269,LeftResponse,incorrect,True,22.0
2,5,290.7656666666667,835,290.751,290.754,290.759,0.1861029227515161,19.297713367559528,0.1854774868115782,19.28687286376953,0.2617013677954674,26.285646438598636,-0.0152446627616882,-0.6467428803443909,-0.1117943972349166,-7.830214500427246,L,False,True,0,L,0,,0.347,LeftResponse,correct,True,22.0
3,6,294.02566666666667,845,293.813,293.823,293.83,1.0330725387255768,81.27423991635311,0.8536771088838577,70.95602416992188,0.7265625,59.42401885986328,-0.5817854106426239,-39.63262176513672,-0.4394726157188415,-24.386926651000977,L,False,True,0,R,200,,0.235,LeftResponse,incorrect,True,22.0
4,8,307.4526666666667,866,307.343,307.347,307.352,0.2650120265991444,26.557863427704227,0.2235789895057678,22.958398818969727,0.2515146732330322,28.061622619628903,-0.1422807425260543,-13.350357055664062,-0.1117948549799621,-7.899551868438721,L,False,True,0,L,100,,0.372,LeftResponse,correct,True,22.0
5,9,311.2126666666667,6716,310.996,311.002,311.007,0.3767307784293712,42.04323397563753,-0.376036137342453,-41.96916198730469,-0.2921665012836456,-30.14057922363281,0.0228670686483383,2.494587182998657,-0.0711406022310257,-11.24851894378662,L,False,True,0,R,200,,0.279,RightResponse,correct,True,25.0
6,10,317.79466666666667,882,317.73,317.735,317.741,0.318611335520803,28.449965694258925,0.2921891426667571,27.001548767089844,0.2667534053325653,27.345121383666992,-0.1270381361246109,-8.961970329284668,-0.0457339286804199,-5.127738952636719,L,False,True,0,L,50,,0.262,LeftResponse,correct,True,25.0
7,11,322.3826666666667,893,321.972,321.977,321.982,0.4439838241940998,46.10807455545718,0.3529717922210693,39.73026657104492,0.3938147537410259,38.98885345458984,-0.2693186774849891,-23.397872924804688,-0.2464453279972076,-34.89912033081055,L,False,True,0,L,400,,0.391,LeftResponse,correct,True,21.0
8,13,330.5846666666667,6755,330.171,330.175,330.179,0.2623271031774676,29.17442371230028,-0.2591580115258693,-28.47968292236328,-0.2946747541427612,-34.31715393066406,0.0406526029109954,6.3288750648498535,0.038111537694931,3.672568082809448,L,False,True,0,R,400,,0.277,LeftResponse,incorrect,True,20.0
9,14,335.85066666666665,931,335.741,335.744,335.748,0.1558811675780484,18.852684876183314,0.147365819197148,17.323564529418945,0.2642418295145035,32.15250396728516,-0.0508158807642757,-7.437596321105957,-0.0330303218215703,-1.940243124961853,L,False,True,0,R,100,,0.298,RightResponse,correct,True,21.0
10,15,342.5876666666667,946,342.52,342.528,342.534,0.4380530874533461,39.034875275327856,0.4116047322750091,32.68351745605469,0.3887138664722442,33.6519660949707,-0.1499068103730678,-21.342660903930664,-0.0965496376156807,-10.27858066558838,L,False,True,0,L,50,,0.261,LeftResponse,correct,True,24.0
11,16,347.0586666666667,6781,346.942,346.949,346.954,0.3544466300427253,34.7488025427478,-0.3531328439712524,-33.973575592041016,-0.2692386507987976,-24.22201919555664,-0.0304894745349884,-7.299002647399902,-0.0152442753314971,-15.983406066894531,L,False,True,0,R,100,,0.373,RightResponse,correct,True,20.0
12,17,350.8226666666667,6790,350.814,350.818,350.823,0.2677489755535165,29.28188630836273,-0.2642420083284378,-28.964998245239254,-0.2438937723636627,-25.798259735107425,-0.0431934595108032,-4.296247482299805,-0.0736826583743095,-9.978337287902832,L,False,True,0,L,0,,0.292,LeftResponse,correct,True,21.0
13,18,357.24266666666665,6799,357.228,357.232,357.237,0.2238925496856055,24.26334534584623,-0.2210488691926002,-23.837251663208008,-0.0584279298782348,-16.119482040405273,-0.0355706512928009,-4.527180194854736,-0.0813053399324417,-8.523199081420898,L,False,True,0,R,0,,0.383,RightResponse,correct,True,20.0
14,20,369.3326666666667,1011,369.216,369.219,369.226,0.271876344067895,25.224583580349105,0.215967122465372,20.765199661254883,0.3124932646751404,15.95910358428955,-0.1651512896642089,-14.32082748413086,0.0431926399469375,9.262154579162598,L,False,True,0,R,100,,0.27,RightResponse,correct,True,19.0
15,22,383.43466666666666,1035,383.22,383.226,383.229,0.2360058320982935,22.366996808427693,0.2286563515663147,21.479961395263672,0.3175235986709595,33.184574127197266,-0.0584382209926843,-6.236489772796631,-0.0101631507277488,-7.067995071411133,L,False,True,0,L,200,,0.216,LeftResponse,correct,True,24.0
16,24,392.7606666666667,1053,392.345,392.35,392.357,0.4002808531747666,40.901512002801645,0.3963587395846843,40.62918472290039,0.3480706512928009,31.157773971557617,-0.0558973252773284,-4.712009429931641,-0.1016315761953592,-4.065256595611572,L,False,True,0,L,400,,0.261,LeftResponse,correct,True,23.0
17,25,398.07666666666665,1065,398.01,398.017,398.023,0.454825682092066,44.27365200506314,0.4141441807150841,39.70513916015625,0.3582318723201751,31.111473083496094,-0.18801861256361,-19.587194442749023,-0.0609790603630244,-7.76095724105835,L,False,True,0,L,50,,0.34,LeftResponse,correct,True,23.0
18,27,407.5106666666667,1082,407.5,407.504,407.508,0.2178836375763256,24.42706259957033,0.1854755207896232,20.395381927490234,0.2286164164543151,26.925935745239254,-0.1143333315849304,-13.44283390045166,-0.0863849967718124,-8.36132526397705,L,False,True,0,R,0,,0.248,RightResponse,correct,True,19.0
19,28,412.63166666666666,1091,412.621,412.628,412.636,0.485971776005515,41.19735154553798,0.4827463626861572,40.92964553833008,0.4801828414201736,37.41712188720703,-0.0558973737061023,-4.688911437988281,0.0406500697135925,-3.48758316040039,L,False,True,0,L,0,,0.389,LeftResponse,correct,True,18.0
20,29,417.01166666666666,6899,416.944,416.951,416.958,0.5119223707725775,48.14316716958648,-0.5106850387528539,-48.06595230102539,-0.2210215926170349,-28.9847412109375,-0.0355711244046688,2.7255778312683105,-0.0457337349653244,1.1779931783676147,L,False,True,0,R,50,,0.271,RightResponse,correct,True,22.0
21,30,421.1716666666667,1108,421.153,421.159,421.165,0.3577445439500759,34.87211370129143,0.3353837579488754,32.729976654052734,0.3073752522468567,30.437152862548828,-0.1244945526123046,-12.033824920654297,-0.0533560812473297,-10.27849292755127,L,False,True,0,R,0,,0.312,RightResponse,correct,True,17.0
22,32,433.0076666666667,6926,432.944,432.952,432.957,0.4675045567370908,48.106535619867365,-0.4674976523965597,-48.043006896972656,-0.2819491028785705,-32.18906021118164,-0.0025407820940017,2.4714889526367188,-0.0076223611831665,-4.527214527130127,L,False,True,0,R,50,,0.24,RightResponse,correct,True,21.0
23,33,436.9796666666667,6936,436.966,436.971,436.977,0.3185972572154302,29.17390877794112,-0.2921732664108276,-27.115673065185547,-0.2311899065971374,-23.165239334106445,0.1270393431186676,10.763699531555176,0.0406526364386081,4.434831142425537,L,False,True,0,L,0,,0.23,RightResponse,incorrect,True,16.0
24,34,445.3016666666667,9954,445.182,445.184,445.191,0.29122638068995,28.361069517820432,0.1702325120568275,20.85751724243164,0.1905511915683746,21.942100524902344,-0.2362915500998497,-19.21755027770996,-0.1143355751410126,-7.945743560791016,L,False,True,0,L,100,,0.21,LeftResponse,correct,False,18.0
25,36,454.0366666666667,6982,453.622,453.628,453.635,0.4686528474827278,44.117803682626494,-0.4624127093702554,-42.59186935424805,-0.3912355005741119,-37.13766860961914,-0.0762232095003128,-11.502750396728516,-0.0584366619586944,-10.185970306396484,L,False,True,0,L,400,,0.235,LeftResponse,correct,True,22.0
26,37,457.8256666666667,6988,457.709,457.716,457.722,0.464435003870958,43.41341283672792,-0.462422177195549,-43.19336700439453,-0.3734405636787414,-35.05760955810547,-0.0431926250457763,-4.365485191345215,-0.0813053683377802,-5.820719242095947,L,False,True,0,L,100,,0.267,LeftResponse,correct,True,18.0
27,38,461.22266666666667,1208,461.206,461.213,461.219,0.5425800256312353,47.10483691488055,0.5030676871538162,44.209083557128906,0.50814288854599,42.6380500793457,-0.2032633423805236,-16.261075973510742,-0.142284445464611,-14.066760063171388,L,False,True,0,R,0,,0.278,RightResponse,correct,True,19.0
28,39,467.8426666666667,7001,467.425,467.43,467.434,0.286846476028305,27.827651720455883,-0.241371102631092,-23.85993385314941,-0.2159406542778015,-21.77880859375,-0.1549867466092109,-14.32067584991455,-0.1930984184145927,-18.40900611877441,L,False,True,0,L,400,,0.34,LeftResponse,correct,True,21.0
29,41,767.0066666666667,1402,766.796,766.799,766.803,0.1620537726709519,21.771399576095423,0.1219579470343887,16.538238525390625,0.1168726086616516,13.812231063842772,-0.106713093817234,-14.159113883972168,-0.0965501889586448,-11.595261573791504,L,False,True,1,R,200,,0.268,RightResponse,correct,True,23.0
30,44,780.3786666666666,10183,780.259,780.267,780.276,0.582062176961215,35.47669143878219,0.3252184349112212,25.38459014892578,0.3709483109414577,21.619461059570312,-0.4827311336994171,-24.78342628479004,-0.2286551892757415,-7.021288871765137,L,False,True,1,R,100,,0.258,RightResponse,correct,True,17.0
31,45,783.5266666666666,7190,783.319,783.323,783.326,0.2833373352497149,34.138298393583284,-0.2388301342725753,-28.040626525878903,-0.2032588869333267,-20.97258949279785,-0.1524474089965224,-19.471689224243164,-0.1295681893825531,-16.028566360473633,L,False,True,1,L,200,,0.206,LeftResponse,correct,True,22.0
32,46,788.9426666666667,7192,788.719,788.724,788.726,0.1656949298860726,19.82078552414837,-0.1346594542264938,-14.898037910461426,-0.1092487573623657,-13.765809059143066,-0.0965486466884613,-13.073331832885742,-0.0762233063578605,-13.835683822631836,L,False,True,1,L,200,,0.306,LeftResponse,correct,True,21.0
33,47,792.0986666666666,7197,791.884,791.89,791.898,0.4865044940923838,41.07384159580464,-0.4674965655431151,-38.573150634765625,-0.3353651463985443,-28.82496452331543,0.1346609964966774,14.112849235534668,0.0101622343063354,1.5243455171585083,L,False,True,1,R,200,,0.308,RightResponse,correct,True,20.0
34,48,796.6996666666666,1444,796.636,796.642,796.648,0.3557337049061735,35.79742871805836,0.3556974083185196,35.361961364746094,0.3836585432291031,35.61724090576172,0.0050815865397453,-5.566649913787842,-0.0635195896029472,-9.447093963623049,L,False,True,1,L,50,,0.295,LeftResponse,correct,True,18.0
35,49,801.5246666666667,7210,801.411,801.415,801.42,0.2109345514143567,23.79401366743999,-0.2083324193954467,-22.7271785736084,-0.1905591841787099,-23.444561004638672,0.0330301076173782,7.044887542724609,0.0076223686337471,2.3329052925109863,L,False,True,1,L,100,,0.366,LeftResponse,correct,True,16.0
36,50,806.2666666666667,1454,806.151,806.155,806.162,0.3557462198594958,34.526350881853624,0.3557099252939224,34.462310791015625,0.2464559357613325,24.39151763916016,-0.0050815343856811,2.101913452148437,-0.0127036571502685,-1.5937325954437256,L,False,True,1,R,100,,0.324,LeftResponse,incorrect,True,15.0
37,51,811.1666666666666,7219,811.104,811.107,811.11,0.137503366833606,17.2718736954876,-0.1321161687374115,-16.514530181884766,-0.1905574724078178,-23.259559631347656,-0.0381115972995758,-5.058449745178223,0.0127036869525909,1.524441838264465,L,False,True,1,L,50,,0.249,LeftResponse,correct,True,17.0
38,52,814.4976666666666,1477,814.287,814.291,814.296,0.1679421961391297,18.05514623866884,0.1651513837277889,17.924121856689453,0.2083340883255005,21.387775421142575,0.03048937022686,2.1712119579315186,-0.0279482454061508,-4.850527763366699,L,False,True,1,R,200,,0.338,RightResponse,correct,True,19.0
39,53,821.5926666666667,1493,821.577,821.581,821.587,0.2520409186222756,26.016024391112143,0.2439058572053909,25.568580627441406,0.2921872399747371,23.99857711791992,-0.0635181665420532,-4.804290771484375,-0.0711396932601928,-7.113970279693604,L,False,True,1,L,0,,0.201,LeftResponse,correct,True,18.0
40,54,827.2376666666667,1500,826.828,826.829,826.832,0.1052799135981485,16.791258070043302,0.0990889966487884,14.574655532836914,0.1346535384654998,18.24633026123047,-0.0355700850486755,-8.338211059570312,-0.0635181367397308,-12.149248123168944,L,False,True,1,R,400,,0.31,RightResponse,correct,True,19.0
41,55,831.4346666666667,7263,831.422,831.426,831.429,0.1537955705678989,17.706744916453616,-0.1524464860558509,-17.6468505859375,-0.1117898821830749,-15.68290901184082,-0.0203260034322738,-1.455156326293945,-0.0254068076610565,-3.00262713432312,L,False,True,1,L,0,,0.348,LeftResponse,correct,True,17.0
42,56,835.3726666666666,7270,834.961,834.965,834.97,0.2146434568324682,26.31189141133145,-0.2134219110012054,-26.03101921081543,-0.3099692612886429,-29.88829040527344,0.0228670388460159,3.834275484085083,-0.0685994029045105,-4.503997325897217,L,False,True,1,L,400,,0.365,LeftResponse,correct,True,18.0
43,58,847.4296666666667,1534,847.369,847.374,847.38,0.3463075684562672,32.88121211520997,0.3201138973236084,30.67193031311035,0.3633262254297733,35.2701416015625,-0.1321212500333786,-11.849337577819824,-0.2896419316530227,-21.734601974487305,L,False,True,1,R,50,,0.256,RightResponse,correct,True,16.0
44,59,851.7346666666667,7291,851.321,851.325,851.33,0.247292762185064,28.26624387021969,-0.2464559786021709,-28.202714920043945,-0.1575271189212799,-19.61002922058105,0.0203263582661747,1.8940469026565552,-0.0177846848964691,-3.7648024559021,L,False,True,1,L,400,,0.24,LeftResponse,correct,True,17.0
45,61,861.1486666666667,7309,861.034,861.041,861.047,0.4230523587539191,30.714335026422024,-0.4141383692622185,-30.62735939025879,-0.2566058933734894,-28.871004104614254,-0.0863869744352996,-2.309812307357788,-0.0457337349653244,-0.1616844534873962,L,False,True,1,R,100,,0.303,RightResponse,correct,True,18.0
46,62,864.4916666666667,1553,864.381,864.383,864.385,0.1044460002458217,16.131316300089587,0.104167491197586,16.052391052246094,0.144824530929327,21.388765335083008,-0.0076223844662308,-1.5937713384628296,-0.0304891467094421,-5.936139106750488,L,False,True,1,R,100,,0.318,LeftResponse,incorrect,True,17.0
47,63,869.3376666666667,7335,869.327,869.33,869.334,0.1571389571922342,17.155380367446725,-0.144824743270874,-16.79227638244629,-0.111793428659439,-15.12905502319336,-0.0609790587332099,-3.510915756225586,-0.0609765350818634,-7.876129627227783,L,False,True,1,L,0,,0.222,LeftResponse,correct,True,16.0
48,64,873.4386666666667,1576,873.324,873.331,873.335,0.2662951818886977,23.519324553446797,0.2566165253520012,20.302875518798828,0.2896423488855362,27.78643226623535,-0.0711412876844406,-11.872315406799316,-0.1092520505189895,-10.46324634552002,L,False,True,1,L,100,,0.373,LeftResponse,correct,True,20.0
49,65,877.4436666666667,7344,877.23,877.234,877.238,0.2089012552196666,24.837652357170544,-0.2083442658185959,-24.83039093017578,-0.1702294200658798,-20.16425132751465,0.0152447149157524,-0.6005504727363586,-0.0914636254310607,-6.651902198791504,L,False,True,1,L,200,,0.212,LeftResponse,correct,True,18.0
50,67,885.0546666666667,1591,885.043,885.045,885.047,0.1049443092730424,15.33450863073531,0.1041725538671016,15.2909574508667,0.137194812297821,19.516756057739254,-0.0127038210630416,-1.154891848564148,-0.0711385309696197,-6.513328075408936,L,False,True,1,R,0,,0.362,LeftResponse,incorrect,True,15.0
51,68,892.2026666666667,1602,892.19,892.193,892.197,0.1700037035687775,18.15778899317838,0.1676905825734138,18.08565902709961,0.2210348844528198,25.17533302307129,-0.0279486626386642,-1.6168607473373413,-0.0050815492868423,-2.494579553604126,L,False,True,1,R,0,,0.364,RightResponse,correct,True,18.0
52,69,895.2836666666667,1606,894.874,894.879,894.885,0.2786193631237729,24.825267561564647,0.2744052931666374,24.738075256347656,0.3404536992311477,30.39615821838379,0.0482750928495079,2.078831911087036,-0.0711405128240585,-1.3396613597869873,L,False,True,1,R,400,,0.285,RightResponse,correct,True,16.0
53,73,915.6636666666667,1624,915.652,915.655,915.658,0.1421451061899713,17.701631654874735,0.129577100276947,16.16826629638672,0.1676872819662094,20.74149703979492,-0.058438055217266,-7.206589221954346,0.0152438580989837,1.2241291999816897,L,False,True,1,R,0,,0.348,RightResponse,correct,True,17.0
54,74,919.2356666666667,1627,918.824,918.829,918.835,0.270900443629635,26.549291745904785,0.2489966182038188,23.606182098388672,0.274381548166275,23.719554901123047,-0.1067133285105228,-12.149611473083496,0.0228660702705383,4.827269077301025,L,False,True,1,L,400,,0.355,LeftResponse,correct,True,15.0
55,76,926.1766666666666,1638,926.11,926.115,926.123,0.4653012318401615,36.796418367130926,0.4497168213129043,36.3331413269043,0.3963247537612915,25.474071502685547,-0.1194153130054473,-5.820588111877441,0.068593144416809,3.348814010620117,L,False,True,1,R,50,,0.204,RightResponse,correct,True,14.0
56,78,937.7426666666667,1661,937.672,937.676,937.686,0.3087329800040376,22.19079270191536,0.2998114125803113,20.28009986877441,0.2566067278385162,12.056344032287598,-0.0736829005181789,-9.008264541625977,0.0533540248870849,1.0624654293060305,L,False,True,1,L,50,,0.209,LeftResponse,correct,True,13.0
57,79,942.5096666666667,1670,942.095,942.099,942.105,0.2496774264658657,28.28992658410528,0.2439096122980117,27.43977165222168,0.2159549593925476,21.80331420898437,-0.0533565208315849,-6.8832316398620605,-0.0304890573024749,-2.77173399925232,L,False,True,1,L,400,,0.373,LeftResponse,correct,True,14.0
58,84,1173.3896666666665,7595,1173.275,1173.283,1173.289,1.1004081625940307,109.77897513990104,-0.8308249711990356,-83.84529113769531,-0.5869149565696716,-41.59932327270508,-0.7215455574914813,-70.86177062988281,-1.0136186182498932,-101.1799545288086,L,False,True,2,L,100,,0.248,LeftResponse,correct,True,18.0
59,86,1188.6976666666665,1885,1188.583,1188.595,1188.605,1.1396365112615183,80.45503107359129,1.1381372269243002,80.2794418334961,1.0569381713867188,80.8885726928711,-0.0584382622037082,-5.312555313110352,0.0838440656661987,14.620741844177246,L,False,True,2,L,100,,0.399,LeftResponse,correct,True,17.0
60,90,1216.5756666666666,1947,1216.362,1216.368,1216.375,0.4684098962826656,47.53065908803804,0.4522545523941517,46.9117317199707,0.3709530122578144,37.25704193115234,0.1219575777649879,7.645454883575439,-0.0457339882850647,-9.678011894226074,L,False,True,2,L,200,,0.25,LeftResponse,correct,True,15.0
61,93,1237.4266666666665,1977,1237.021,1237.021,1237.027,0.099221011598871,13.725438473152478,0.0990908071398735,12.75015926361084,0.1448144614696502,19.6086483001709,0.0050814449787139,-5.081446647644043,-0.0355688631534576,-8.499473571777344,L,False,True,2,L,400,,0.296,LeftResponse,correct,False,13.0
62,95,1249.9206666666666,7725,1249.804,1249.809,1249.815,0.389733183323309,40.8528375120872,-0.3887297585606575,-40.790077209472656,-0.3226668834686279,-31.550710678100582,-0.027948684990406,2.26361083984375,-0.0279480516910552,-6.490389347076416,L,False,True,2,R,100,,0.274,RightResponse,correct,True,16.0
63,99,1274.7886666666666,2036,1274.574,1274.581,1274.59,0.4584948127121512,35.98757831279816,0.4573036134243011,35.82264709472656,0.4471568018198013,38.82536315917969,-0.0330287516117095,-3.441474676132202,0.0711406618356704,4.296151161193848,L,False,True,2,L,200,,0.328,LeftResponse,correct,True,14.0
64,101,1288.1196666666665,7769,1288.105,1288.109,1288.115,0.264349765215109,25.12023620480465,-0.2515382915735245,-24.22991943359375,-0.2845214009284973,-32.077972412109375,-0.0812975168228149,-6.628519535064697,-0.0736793577671051,-2.771636486053467,L,False,True,2,R,0,,0.296,LeftResponse,incorrect,True,15.0
65,102,1292.7246666666665,7778,1292.507,1292.513,1292.519,0.2999771507326475,27.92312163998146,-0.2947233617305755,-27.185667037963867,-0.2617009468376636,-21.20404624938965,0.0558966100215911,6.374969005584717,-0.0152437388896942,-3.718522787094116,L,False,True,2,R,200,,0.238,RightResponse,correct,True,13.0
66,104,1302.9286666666665,7806,1302.914,1302.918,1302.923,0.2175214957748202,23.14359857784757,-0.200713038444519,-21.480247497558597,-0.2184973955154419,-22.65814781188965,-0.0838443636894226,-8.615400314331055,-0.0863848328590393,-6.467292308807373,L,False,True,2,L,0,,0.334,LeftResponse,correct,True,18.0
67,105,1306.0306666666665,7813,1305.966,1305.971,1305.979,0.5748026750664588,55.76862224047678,-0.5513220429420471,-54.48520278930664,-0.4649496749043464,-41.80664443969727,-0.1626103324815631,-11.89545726776123,0.0406516194343566,1.8016072511672971,L,False,True,2,L,50,,0.397,LeftResponse,correct,True,12.0
68,107,1320.9226666666666,2120,1320.854,1320.859,1320.865,0.2921099162056983,30.902505737640045,0.2819897532463074,30.208234786987305,0.3937798142433166,33.34992218017578,-0.0762232393026351,-6.513632774353027,0.12703837454319,7.9225754737854,L,False,True,2,R,50,,0.396,LeftResponse,incorrect,True,11.0
69,108,1324.6076666666665,7841,1324.193,1324.2,1324.206,0.6122915067853182,55.592508439943096,-0.462332010269165,-42.72352600097656,-0.3632977604866028,-36.421974182128906,-0.4014349281787872,-35.57003402709961,-0.3988824784755707,-30.02606201171875,L,False,True,2,R,400,,0.381,RightResponse,correct,True,16.0
70,112,1351.9276666666665,10714,1351.866,1351.871,1351.88,0.7658036830027711,70.56721438521537,-0.335330069065094,-29.58447265625,-0.2794801145792007,-24.64502716064453,-0.6884831339120865,-64.06629943847656,-0.5563690662384033,-34.85017776489258,L,False,True,2,L,50,,0.226,LeftResponse,correct,True,14.0
71,113,1356.3236666666667,7885,1356.208,1356.213,1356.219,0.3291752771238119,31.931493757505287,-0.3277604840695858,-31.875282287597656,-0.2235388755798339,-24.340208053588867,-0.030486524105072,-1.8938512802124023,-0.0508140325546264,4.4346442222595215,L,False,True,2,L,100,,0.225,LeftResponse,correct,True,15.0
72,115,1369.6006666666665,2196,1369.386,1369.391,1369.396,0.2467807748587438,27.08238864425672,0.246453583240509,26.88585662841797,0.2184438109397888,28.93377494812012,0.0127036273479461,3.256760358810425,-0.0127034485340118,-3.118114948272705,L,False,True,2,L,200,,0.253,LeftResponse,correct,True,12.0
73,120,2140.038666666667,8127,2139.978,2139.982,2139.988,0.336699568804007,37.7138020144065,-0.3328428417444229,-37.51123809814453,-0.406502902507782,-43.76842880249024,-0.0508157685399055,-3.9035725593566895,-0.0762194097042083,-11.756235122680664,L,False,True,3,L,50,,0.216,LeftResponse,correct,True,13.0
74,121,2144.822666666667,2413,2144.611,2144.615,2144.621,0.2472713694908597,24.422745879236707,0.2439069598913192,23.58231544494629,0.205803882330656,21.481225967407227,0.040651261806488,6.351764678955078,0.0533553659915924,6.444233417510986,L,False,True,3,L,200,,0.398,LeftResponse,correct,True,11.0
75,122,2150.059666666667,8142,2149.845,2149.85,2149.856,0.3508098932672923,37.49183481914558,-0.3429845571517944,-35.96157455444336,-0.2337291538715362,-24.666410446166992,-0.0736829340457916,-10.602020263671877,-0.1600665897130966,-14.251270294189451,L,False,True,3,L,200,,0.278,LeftResponse,correct,True,10.0
76,123,2157.695666666667,8146,2157.284,2157.288,2157.292,0.2066793443423003,22.56336944537878,-0.19309913367033,-22.12786865234375,-0.2515244483947754,-28.15497589111328,-0.0736822634935379,-4.411696910858154,-0.017783761024475,-2.194110631942749,L,False,True,3,L,400,,0.311,LeftResponse,correct,True,15.0
77,124,2161.038666666667,8155,2160.932,2160.937,2160.94,0.220974430589563,26.695415110619948,-0.2083278894424438,-23.05008888244629,-0.1981672644615173,-15.243494033813477,-0.0736830336973071,-13.466201782226562,-0.0787635445594787,-8.892651557922363,L,False,True,3,L,100,,0.201,LeftResponse,correct,True,14.0
78,126,2168.4616666666666,2444,2168.441,2168.449,2168.455,0.4161306711393875,36.49481901621822,0.4141403473913669,34.96968460083008,0.3379185646772384,25.130321502685547,0.0406510531902313,10.439970016479492,0.0584382622037082,11.017807960510254,L,False,True,3,L,0,,0.227,LeftResponse,correct,True,17.0
79,127,2175.023666666667,8174,2174.957,2174.962,2174.969,0.3696759010854002,34.5764516138187,-0.3531626537442207,-33.21448516845703,-0.269310712814331,-21.942157745361328,0.1092538870871067,9.608797073364258,0.0254076719284057,3.741865873336792,L,False,True,3,L,50,,0.383,LeftResponse,correct,True,12.0
80,129,2185.8396666666667,8193,2185.427,2185.432,2185.438,0.3459988615286374,38.52209496275483,-0.3455414548516273,-37.7417106628418,-0.2820230424404144,-28.109956741333008,-0.0177852511405944,-7.714601516723633,-0.1524449586868286,-16.537992477416992,L,False,True,3,L,400,,0.294,LeftResponse,correct,True,14.0
81,131,2194.6826666666666,8208,2194.667,2194.674,2194.681,0.3911323926574186,34.24304201812242,-0.3836337924003601,-33.99812316894531,-0.3554878234863281,-29.500450134277344,-0.0762211382389068,-4.088220596313477,-0.149906494654715,-16.28411102294922,L,False,True,3,L,0,,0.378,LeftResponse,correct,True,16.0
82,132,2198.583666666667,8211,2198.473,2198.478,2198.484,0.3111991028896591,29.62492948293376,-0.3023505881428718,-28.29485321044922,-0.2718282341957092,-26.00517845153809,-0.0736817717552185,-8.777113914489746,-0.0813029408454895,-8.107237815856934,L,False,True,3,R,100,,0.27,LeftResponse,incorrect,True,13.0
83,133,2203.5136666666667,8216,2203.499,2203.507,2203.512,0.4400813819289708,36.39366036194403,-0.4394868910312652,-36.188663482666016,-0.3378539085388183,-36.25651168823242,0.0228669047355651,3.8573501110076895,0.017785295844078,1.1086944341659546,L,False,True,3,L,0,,0.283,LeftResponse,correct,True,15.0
84,134,2207.7186666666666,8220,2207.651,2207.655,2207.662,0.3420490834775596,34.915885780549374,-0.3404506593942642,-34.11458206176758,-0.3098703026771545,-24.360918045043945,-0.0330291390419006,-7.437363147735596,-0.0406527146697044,-2.125028133392334,L,False,True,3,L,50,,0.26,LeftResponse,correct,True,11.0
85,135,2211.719666666667,8227,2211.656,2211.662,2211.668,0.3874770031291137,33.838831330969306,-0.3480791673064232,-30.76593017578125,-0.2920867800712585,-27.22304916381836,-0.1702331379055977,-14.089856147766112,-0.1219491958618164,-16.791271209716797,L,False,True,3,R,50,,0.306,RightResponse,correct,True,10.0
86,136,2215.154666666667,8232,2214.942,2214.948,2214.954,0.3617256997004154,32.00379896375652,-0.350624430924654,-31.413009643554688,-0.3505166172981262,-26.693038940429688,0.0889268815517425,6.120945453643799,0.1092506647109985,0.970089316368103,L,False,True,3,R,200,,0.29,RightResponse,correct,True,9.0
87,137,2218.1186666666667,8238,2218.053,2218.057,2218.066,0.2954315842448244,23.14654777181609,-0.2947315573692322,-23.144289016723636,-0.2261151373386383,-20.648406982421875,-0.0203256011009216,0.3233568668365478,-0.1499067433178424,-7.137322425842285,L,False,True,3,R,50,,0.267,RightResponse,correct,True,9.0
88,138,2221.7076666666667,2546,2221.694,2221.699,2221.704,0.2859363638943493,31.35740762086809,0.2769449483603239,29.79641914367676,0.2159278988838195,22.886091232299805,-0.0711414068937301,-9.770384788513184,-0.0330293476581573,-5.681979656219482,L,False,True,3,R,0,,0.361,LeftResponse,incorrect,True,14.0
89,139,2224.550666666667,2552,2224.485,2224.491,2224.497,0.4374396207081704,43.11116549194332,0.4090624786913395,41.021820068359375,0.2946889996528625,28.38343811035156,0.1549880972597748,13.258313179016112,-0.0635165274143219,2.263514995574951,L,False,True,3,R,50,,0.213,LeftResponse,incorrect,True,8.0
90,141,2232.815666666667,2563,2232.399,2232.404,2232.41,0.3338073199727293,32.16733420095544,0.3328389599919319,32.10594177246094,0.2692531943321228,25.793724060058597,0.0254077464342117,-1.9864270687103271,0.0762236304581165,2.448396682739258,L,False,True,3,R,400,,0.389,RightResponse,correct,True,12.0
91,142,2236.1046666666666,2567,2235.695,2235.699,2235.706,0.3133510978029687,30.153019228071685,0.2972712442278862,26.88606071472168,0.3175196051597595,30.20427703857422,-0.0990894436836242,-13.650798797607422,-0.0787644200026989,-7.068017959594727,L,False,True,3,L,400,,0.332,LeftResponse,correct,True,11.0
92,143,2239.934666666667,2575,2239.92,2239.925,2239.932,0.3635429095633905,31.509440650539855,0.3633208721876144,30.927345275878903,0.2870325446128845,27.17916679382324,-0.0127039728686213,-6.02861213684082,0.0177855631336569,1.1780041456222534,L,False,True,3,R,0,,0.365,LeftResponse,incorrect,True,17.0
93,144,2244.576666666667,8274,2244.464,2244.47,2244.477,0.4166426045897523,40.81569492958008,-0.4166348576545715,-40.6241455078125,-0.2870468497276306,-24.478870391845703,-0.0025407373905181,-3.9496524333953857,-0.1397431828081607,-9.93218231201172,L,False,True,3,L,100,,0.228,LeftResponse,correct,True,16.0
94,145,2249.739666666667,2599,2249.675,2249.681,2249.688,0.2750086981692011,22.413686047430065,0.264234721660614,21.111024856567383,0.2616735994815826,23.487947463989254,-0.0762220174074173,-7.529804229736328,-0.0711414366960525,-8.754104614257812,L,False,True,3,L,50,,0.31,LeftResponse,correct,True,11.0
95,146,2257.641666666667,2615,2257.431,2257.437,2257.443,0.3687989609837059,30.34282260880833,0.3506281450390816,26.35489273071289,0.3429551124572754,26.44310188293457,-0.1143353730440139,-15.03683853149414,-0.0609780550003051,-5.612780570983887,L,False,True,3,R,200,,0.277,LeftResponse,incorrect,True,8.0
96,148,2264.869666666667,8312,2264.454,2264.46,2264.467,0.4675844272734181,42.35826916759964,-0.4445912539958954,-41.68777084350586,-0.3149606585502624,-30.896249771118164,-0.1448233872652053,-7.506845474243164,-0.1244937181472778,-15.105576515197754,L,False,True,3,R,400,,0.292,LeftResponse,incorrect,True,10.0
97,149,2268.212666666667,2638,2268.15,2268.156,2268.162,0.4303235118424721,40.2656886016647,0.4141477048397064,40.23682022094727,0.3861063122749328,35.95450210571289,-0.1168760173022747,-1.5244596004486084,-0.1422843895852565,-13.46618938446045,L,False,True,3,R,50,,0.225,LeftResponse,incorrect,True,10.0
98,150,2273.741666666667,8320,2273.628,2273.634,2273.64,0.4090669718174127,39.67036843508736,-0.4090590812265873,-39.63549423217773,-0.2718169689178467,-28.59040260314941,0.0025407671928405,1.6630480289459229,-0.025407887995243,-6.8139328956604,L,False,True,3,L,100,,0.318,LeftResponse,correct,True,15.0
99,151,2277.0426666666667,8326,2277.031,2277.037,2277.043,0.450691067689735,42.1177153245415,-0.4446273557841778,-42.1070671081543,-0.2921535968780517,-27.598546981811523,-0.073681429028511,0.9470183253288268,-0.0940085351467132,-5.150847911834717,L,False,True,3,R,0,,0.385,RightResponse,correct,True,20.0
100,152,2281.0356666666667,11166,2280.827,2280.832,2280.835,0.2525679270284199,28.16649611240517,-0.0228669792413711,-11.248734474182127,0.0381056070327758,-1.4318647384643557,-0.2515306323766708,-25.82280921936035,-0.3150527477264404,-34.831298828125,L,False,True,3,R,200,,0.281,LeftResponse,incorrect,True,11.0
101,153,2286.2276666666667,8337,2286.015,2286.019,2286.025,0.282229338378734,28.564908923244225,-0.2743897140026092,-28.409088134765625,-0.3302525877952575,-34.73427963256836,0.0660581886768341,2.9795525074005127,-0.0152447521686553,-3.3261260986328125,L,False,True,3,L,200,,0.27,LeftResponse,correct,True,14.0
102,154,2290.1406666666667,8343,2290.028,2290.033,2290.04,0.4546281994442872,49.06671663367806,-0.3836565241217613,-39.52061462402344,-0.2768588066101074,-22.58316802978516,-0.2439148852135986,-29.080297470092773,-0.2083417028188705,-19.49455451965332,L,False,True,3,L,100,,0.372,LeftResponse,correct,True,14.0
103,155,2293.708666666667,2679,2293.295,2293.301,2293.307,0.4069749413967803,36.83010208468541,0.3582470202818513,35.339744567871094,0.3734381794929504,32.88662338256836,0.193100169301033,10.37105941772461,0.0889276713132858,6.883235931396484,L,False,True,3,R,400,,0.243,LeftResponse,incorrect,True,13.0
104,159,2315.683666666667,8381,2315.467,2315.473,2315.479,0.3119993743514057,29.9816272267488,-0.2998015880584717,-29.98012351989746,-0.2768979668617248,-23.71797752380371,-0.0863864421844482,0.3002746999263763,-0.0076222121715545,1.2472797632217407,L,False,True,3,R,200,,0.3,RightResponse,correct,True,13.0
105,160,2640.972666666667,8476,2640.962,2640.965,2640.97,0.1853325773556897,21.036343432965523,-0.1626039445400238,-18.593181610107425,-0.3074354529380798,-32.70689392089844,0.0889276191592216,9.839783668518066,-0.0635196343064308,-5.520431041717529,L,False,True,4,L,0,,0.277,LeftResponse,correct,True,19.0
106,161,2648.291666666667,8484,2648.227,2648.235,2648.24,0.4982132382821781,46.29916075557953,-0.4141468554735183,-37.742130279541016,-0.3150577843189239,-24.13751220703125,-0.2769455052912235,-26.816858291625977,-0.2667818544432521,-20.32627487182617,L,False,True,4,R,50,,0.33,RightResponse,correct,True,13.0
107,162,2652.817666666667,2847,2652.605,2652.61,2652.614,0.2114906925270052,25.75991386561641,0.1854728460311889,19.979307174682617,0.1854767128825187,19.679481506347656,-0.1016274392604827,-16.260395050048828,-0.0076223835349082,-1.963341236114502,L,False,True,4,L,200,,0.205,LeftResponse,correct,True,12.0
108,163,2656.5396666666666,8495,2656.472,2656.476,2656.48,0.2147680583455087,22.57535317591036,-0.1930998712778091,-19.97983741760254,-0.2185019105672836,-21.549959182739254,-0.0940093537792563,-10.50964641571045,-0.1321212835609913,-14.367035865783691,L,False,True,4,R,50,,0.215,RightResponse,correct,True,12.0
109,164,2663.050666666667,2859,2662.938,2662.942,2662.945,0.1430518862203061,17.32391552410962,0.1346609070897102,15.937578201293944,0.2159545123577118,24.71357536315918,-0.0482729971408844,-6.790555953979492,0.0431920886039733,5.681948661804199,L,False,True,4,R,100,,0.295,RightResponse,correct,True,13.0
110,166,2673.126666666667,2874,2672.918,2672.92,2672.924,0.2192128396656227,26.916736270346103,0.1575272530317306,18.06253242492676,0.2108857482671737,27.92561149597168,-0.1524448543787002,-19.956342697143555,-0.0889261364936828,-8.199674606323242,L,False,True,4,L,200,,0.332,LeftResponse,correct,True,11.0
111,167,2678.9756666666667,8525,2678.964,2678.969,2678.976,0.3150577545166015,27.240335062639893,-0.3150577545166015,-27.23265647888184,-0.2718622647225857,-28.941728591918945,0.0,-0.6467421650886536,-0.0889276955276727,-7.622373580932617,L,False,True,4,R,0,,0.273,RightResponse,correct,True,18.0
112,168,2684.650666666667,8543,2684.64,2684.645,2684.65,0.3402081030639656,34.78895916019121,-0.31759824603796,-29.98129272460937,-0.2820211350917816,-29.7495059967041,0.1219545304775238,17.646352767944336,-0.0558971911668777,1.6168678998947144,L,False,True,4,L,0,,0.275,LeftResponse,correct,True,17.0
113,169,2688.293666666667,2893,2688.28,2688.283,2688.287,0.1824420735214004,22.97417944573389,0.1778553165495395,22.636133193969727,0.213422417640686,25.315019607543945,-0.0406521409749984,-3.926626443862915,-0.0330301597714424,-3.464700937271118,L,False,True,4,L,0,,0.254,LeftResponse,correct,True,16.0
114,170,2692.6856666666667,2901,2692.619,2692.629,2692.632,0.3549762359710087,30.89787624736433,0.3252132907509804,23.18971824645996,0.2896482327487319,21.13473129272461,-0.1422829702496528,-20.418514251708984,-0.1067131049931049,-7.16041374206543,L,False,True,4,L,50,,0.326,LeftResponse,correct,True,11.0
115,171,2698.6646666666666,8558,2698.453,2698.459,2698.465,0.3820625722565929,29.66959588534508,-0.3480758368968963,-29.495370864868164,-0.2794768810272217,-29.26429557800293,-0.1575278416275978,-3.2106101512908936,-0.0304892808198928,-0.1154896840453147,L,False,True,4,R,200,,0.21,RightResponse,correct,True,10.0
116,173,2710.288666666667,8574,2709.878,2709.883,2709.889,0.3792246072657061,39.75938934056301,-0.3709547817707062,-39.659400939941406,-0.2693201974034309,-29.61141586303711,0.0787645392119884,2.8179705142974854,0.0609786659479141,4.434816837310791,L,False,True,4,R,400,,0.209,RightResponse,correct,True,16.0
117,176,2723.7566666666667,2939,2723.345,2723.351,2723.358,0.3822408008777661,34.816244611371886,0.3760347366333008,33.6307373046875,0.4395550787448883,37.5805549621582,-0.0685996115207672,-9.008018493652344,0.0203263089060783,3.557105302810669,L,False,True,4,L,400,,0.364,LeftResponse,correct,True,15.0
118,177,2726.762666666667,8601,2726.551,2726.557,2726.562,0.3246297921710563,34.81926616987123,-0.2794842757284641,-29.86566925048828,-0.208342470228672,-19.817914962768555,-0.1651455163955688,-17.900365829467773,-0.1753120273351669,-18.524383544921875,L,False,True,4,R,200,,0.237,LeftResponse,incorrect,True,8.0
119,178,2730.7636666666667,8605,2730.352,2730.356,2730.361,0.2900432538467262,29.917528690851803,-0.2896423488855362,-29.841964721679688,-0.2134200781583786,-23.767244338989254,-0.0152446329593658,-2.125009298324585,-0.0838452875614166,-7.71469259262085,L,False,True,4,R,400,,0.322,RightResponse,correct,True,14.0
120,179,2734.7236666666668,8614,2734.708,2734.715,2734.719,0.2951215727425293,28.14000239120251,-0.2947275787591934,-27.440242767333984,-0.2413706630468368,-23.859893798828125,-0.015244573354721,6.236410140991211,-0.0101629942655563,0.0692937821149826,L,False,True,4,R,0,,0.233,RightResponse,correct,True,15.0
121,180,2738.041666666667,8619,2737.626,2737.632,2737.637,0.3854361804931873,35.886868113795714,-0.3506265245378017,-32.4987907409668,-0.1803941205143928,-20.27989196777344,-0.1600690148770809,-15.22156047821045,-0.1117944568395614,-13.812621116638184,L,False,True,4,L,400,,0.386,LeftResponse,correct,True,13.0
122,181,2742.8416666666667,2971,2742.626,2742.631,2742.636,0.312009740541443,31.003130659762576,0.3099755197763443,30.674219131469727,0.2642397955060005,23.767675399780277,0.0355704277753829,4.50404167175293,0.0050814449787139,3.92657208442688,L,False,True,4,L,200,,0.384,LeftResponse,correct,True,11.0
123,182,2747.454666666667,8633,2747.238,2747.243,2747.249,0.3549828609330167,36.77398007359525,-0.3455466032028198,-36.61040496826172,-0.175309807062149,-21.68854141235352,0.0813042223453521,3.464658498764038,-0.025407887995243,-0.0692945197224617,L,False,True,4,R,200,,0.214,RightResponse,correct,True,10.0
124,183,2749.9866666666667,8638,2749.922,2749.927,2749.934,0.3931079853437695,33.626006306827925,-0.3887400925159454,-33.607723236083984,-0.4065235629677772,-26.955474853515625,0.0584382461383938,1.108710527420044,0.0558973401784896,-2.7024776935577397,L,False,True,4,L,50,,0.213,LeftResponse,correct,True,9.0
125,184,2755.5986666666668,2994,2755.536,2755.543,2755.549,0.3557999913547359,29.57244207810735,0.3226789571344852,28.9417724609375,0.2693167775869369,21.873201370239254,-0.1499063856899738,-6.074795246124268,-0.1448239758610725,-11.710647583007812,L,False,True,4,R,50,,0.37,RightResponse,correct,True,8.0
126,185,2758.2586666666666,3000,2758.245,2758.252,2758.259,0.5278771814959538,50.38980439698448,0.5005334168672562,48.45970153808594,0.3607887774705887,37.53392028808594,0.1676920312456786,13.812664985656738,0.1524467281997203,19.63329315185547,L,False,True,4,L,0,,0.204,LeftResponse,correct,True,14.0
127,186,2762.0646666666667,3005,2761.651,2761.655,2761.658,0.156727750049585,19.592853382196772,0.1473659910261631,18.039628982543945,0.1854778751730919,21.319562911987305,-0.0533559024333953,-7.645370483398437,-0.0965489745140075,-10.347838401794434,L,False,True,4,L,400,,0.36,LeftResponse,correct,True,12.0
128,187,2767.7926666666667,8657,2767.779,2767.785,2767.792,0.309349335737824,30.20243975626238,-0.2998123951256275,-28.27198600769043,-0.3480877131223678,-29.265281677246094,-0.0762203335762023,-10.62460231781006,-0.0127036869525909,1.709210753440857,L,False,True,4,R,0,,0.327,LeftResponse,incorrect,True,13.0
129,188,2770.520666666667,11464,2770.41,2770.412,2770.426,0.4954261054925895,40.96949326604256,-0.1117915213108062,-32.29039001464844,-0.0965492576360702,-26.1931209564209,-0.4826486110687256,-25.21567153930664,-0.1854633688926696,-8.337600708007812,L,False,True,4,L,100,,0.317,LeftResponse,correct,True,11.0
130,189,2775.5956666666666,8678,2775.482,2775.485,2775.491,0.2089161221843198,25.11019301278841,-0.2032622694969177,-24.206676483154297,-0.2591596124693751,-22.45120048522949,0.0482741743326187,6.675223350524902,0.0736830439418554,9.239252090454102,L,False,True,4,R,100,,0.394,LeftResponse,incorrect,True,10.0
131,191,2788.389666666667,3047,2788.326,2788.331,2788.338,0.3125338570457323,28.751499096987992,0.3124925494194031,28.50090980529785,0.2947313636541366,26.47039794921875,0.0050811767578125,3.78772234916687,-0.0127035677433013,-2.1249499320983887,L,False,True,4,L,50,,0.372,LeftResponse,correct,True,7.0
132,193,2798.7896666666666,8717,2798.729,2798.734,2798.739,0.2360190923389456,23.83974184350912,-0.2286700727418065,-23.5368595123291,-0.2210426777601242,-25.49960708618164,0.0584380850195884,3.7880780696868896,0.0635197274386882,3.3723206520080566,L,False,True,4,R,50,,0.275,LeftResponse,incorrect,True,6.0
133,194,2802.065666666667,8726,2801.652,2801.656,2801.66,0.2443554643621477,24.73337307956451,-0.2159568071365356,-20.879711151123047,-0.2388301342725753,-26.308311462402344,-0.1143339425325393,-13.25810718536377,-0.1168747097253799,-12.357314109802246,L,False,True,4,L,400,,0.257,LeftResponse,correct,True,11.0
134,195,2806.2256666666667,8738,2805.811,2805.817,2805.822,0.3290829041908324,35.424300323030515,-0.3201335445046425,-33.81501388549805,-0.3480647802352905,-35.915138244628906,-0.0762238251045346,-10.555846214294434,-0.1803896725177765,-17.576980590820312,L,False,True,4,R,400,,0.302,LeftResponse,incorrect,True,10.0
135,196,2810.563666666667,8743,2810.453,2810.459,2810.464,0.2480355948423653,24.636115740215363,-0.2464559786021709,-24.460851669311523,-0.2464482188224792,-24.18280792236328,-0.0279482901096344,-2.933416843414306,-0.1016293466091156,-11.410205841064451,L,False,True,4,L,100,,0.35,LeftResponse,correct,True,13.0
136,197,2815.2676666666666,8749,2815.254,2815.259,2815.265,0.3280640930192939,32.498859987870624,-0.3150555449537933,-31.59795188903809,-0.2642349749803543,-26.95478630065918,-0.0914661288261413,-7.599035263061523,-0.0762212574481964,-3.718657732009888,L,False,True,4,R,0,,0.248,RightResponse,correct,True,16.0
137,198,2822.0376666666666,3122,2821.827,2821.83,2821.835,0.1964126487937589,23.868267291826488,0.1956058144569397,23.85609436035156,0.2286711186170578,25.892963409423828,-0.0177846550941467,-0.762197732925415,0.0330299586057662,3.6494662761688232,L,False,True,4,L,200,,0.283,LeftResponse,correct,True,9.0
138,199,2826.7676666666666,8763,2826.347,2826.353,2826.359,0.2731442714889676,26.996678766470463,-0.2591256499290466,-24.896408081054688,-0.2566187744960189,-13.697161674499512,-0.0863810777664184,-10.439805030822754,-0.0381106734275817,-6.097738265991211,L,False,True,4,R,400,,0.358,LeftResponse,incorrect,True,13.0
139,202,2936.480666666667,11657,2936.474,2936.478,2936.483,0.2783671196445879,30.134074399020875,0.1016315296292305,10.555810928344728,0.2006568312644958,19.442365646362305,-0.2591510862112045,-28.224763870239254,-0.1372028030455112,-12.888736724853516,L,False,True,5,L,0,,0.35,LeftResponse,correct,True,15.0
140,205,2951.460666666667,8877,2951.25,2951.253,2951.257,0.2332038294480448,27.58733056607344,-0.213417112827301,-26.215167999267575,-0.2235329747200012,-27.110336303710938,-0.0940061807632446,-8.592192649841309,-0.1549874544143676,-17.23109245300293,L,False,True,5,L,200,,0.27,LeftResponse,correct,True,8.0
141,206,2955.603666666667,8883,2955.187,2955.193,2955.2,0.4371303563269706,40.82804613872245,-0.4370122179389,-40.60627746582031,-0.2921496629714966,-26.37462615966797,-0.0101621747016906,-4.249656677246094,-0.0076221227645874,-2.817864179611206,L,False,True,5,L,400,,0.295,LeftResponse,correct,True,16.0
142,208,2965.7906666666668,8904,2965.581,2965.585,2965.588,0.1912490900696365,21.631533229477608,-0.1803928315639495,-20.649322509765625,-0.132090151309967,-14.502141952514648,-0.0635188221931457,-6.444277286529541,0.0330302752554416,4.68891191482544,L,False,True,5,R,200,,0.304,LeftResponse,incorrect,True,7.0
143,209,2971.590666666667,3292,2971.577,2971.581,2971.588,0.3465633533845897,27.669177086999856,0.3099762350320816,26.308734893798828,0.221015453338623,21.15459251403809,0.1549867466092109,8.569354057312012,0.0762220025062561,6.859997749328613,L,False,True,5,R,0,,0.27,RightResponse,correct,True,14.0
144,210,2976.474666666667,8916,2976.36,2976.366,2976.374,0.4647974964454164,41.67759224783887,-0.4344735592603683,-39.543888092041016,-0.2997500896453857,-28.95940589904785,-0.1651346087455749,-13.16444492340088,-0.1549854278564453,-5.658921241760254,L,False,True,5,L,100,,0.268,LeftResponse,correct,True,12.0
145,211,2981.9906666666666,3306,2981.577,2981.58,2981.586,0.233873396274434,24.804887950330954,0.233749158680439,24.50676918029785,0.1879688501358032,15.65613079071045,-0.007622092962265,-3.834153175354004,-0.0127032995223999,1.824648141860962,L,False,True,5,L,400,,0.333,LeftResponse,correct,True,15.0
146,212,2985.8706666666667,3314,2985.761,2985.765,2985.773,0.459431406800835,41.33939306418141,0.4497120892629027,40.536720275878906,0.3836042284965515,28.983278274536133,0.0940013527870178,8.106770515441895,-0.0355678796768188,-0.4388200342655182,L,False,True,5,R,100,,0.283,LeftResponse,incorrect,True,11.0
147,219,3030.7276666666667,8994,3030.315,3030.318,3030.324,0.2614780297790053,25.737893202725328,-0.2210196256637573,-22.33280563354492,-0.1575192511081695,-19.70150375366211,-0.1397178769111633,-12.793941497802734,-0.1397313773632049,-11.34008502960205,L,False,True,5,R,400,,0.208,RightResponse,correct,True,14.0
148,222,3045.382666666667,9024,3045.269,3045.271,3045.281,0.3051320236856422,21.168250717527457,-0.3048674762248993,-19.515724182128903,-0.2693038284778595,-17.53047752380371,-0.0127032995223999,-8.199472427368164,0.0558963268995285,1.7092243432998655,L,False,True,5,R,100,,0.399,RightResponse,correct,True,14.0
149,224,3052.2436666666667,3401,3052.226,3052.231,3052.238,0.4984925085101708,45.81864667696889,0.4318674802780151,40.7855224609375,0.2947083711624145,23.07303047180176,-0.2489683926105499,-20.877967834472656,-0.2032580822706222,-6.513449192047119,L,False,True,5,R,0,,0.37,LeftResponse,incorrect,True,15.0
150,227,3072.4106666666667,9060,3072.348,3072.357,3072.363,0.4270318440781568,35.462734847303686,-0.398899532854557,-31.5749568939209,-0.3149756789207458,-32.97527313232422,-0.1524314880371093,-16.143966674804688,-0.0050815897993743,-0.4388645887374878,L,False,True,5,R,50,,0.333,RightResponse,correct,True,7.0
151,228,3075.2966666666666,9066,3075.181,3075.185,3075.19,0.2642859570031208,28.872816962593557,-0.264237105846405,-28.664209365844727,-0.2514933943748474,-23.509864807128903,0.0050812363624572,-3.464485645294189,0.022864818572998,3.164116859436035,L,False,True,5,L,100,,0.352,LeftResponse,correct,True,13.0
152,229,3078.735666666667,3435,3078.723,3078.726,3078.732,0.2075460893727111,23.629374567389533,0.1600698065012693,17.254287719726562,0.175265371799469,18.88883399963379,-0.1321099400520324,-16.14425277709961,-0.2261255979537964,-16.838062286376953,L,False,True,5,L,0,,0.256,LeftResponse,correct,True,18.0
153,230,3084.934666666667,9088,3084.723,3084.727,3084.731,0.2652437295572131,29.578910686691028,-0.2540562152862549,-29.054832458496094,-0.2159317135810852,-24.272111892700195,-0.076221227645874,-5.543344497680664,-0.1372013539075851,-13.974202156066896,L,False,True,5,L,200,,0.21,LeftResponse,correct,True,10.0
154,231,3087.9066666666668,3456,3087.85,3087.853,3087.857,0.1499799283148617,19.051505013175493,0.1346502006053924,17.36826515197754,0.2540250420570373,26.48774719238281,-0.0660552978515625,-7.829636573791504,-0.0355690121650695,-3.2335422039031982,L,False,True,5,L,50,,0.288,LeftResponse,correct,True,6.0
155,232,3092.453666666667,9102,3092.341,3092.347,3092.353,0.3150948963984216,30.800400379252363,-0.3150539211928844,-30.627744674682617,-0.2793852686882019,-27.77719497680664,-0.0050813853740692,-3.2566730976104736,-0.073677510023117,-1.4781651496887207,L,False,True,5,R,100,,0.313,LeftResponse,incorrect,True,12.0
156,233,3095.384666666667,3467,3095.169,3095.174,3095.18,0.2852917726595709,30.87898737808778,0.282003790140152,30.625389099121094,0.2489588856697082,23.972028732299805,0.0431886315345764,3.949354887008667,-0.0101629495620727,-0.6698307394981384,L,False,True,5,R,200,,0.373,RightResponse,correct,True,9.0
157,234,3099.706666666667,9112,3099.689,3099.693,3099.698,0.2575867997174415,29.743428391474893,-0.238809734582901,-27.691699981689453,-0.1905083656311035,-21.42929458618164,0.0965446531772613,10.855472564697266,0.0711347460746765,7.783286571502685,L,False,True,5,L,0,,0.355,RightResponse,incorrect,True,17.0
158,235,3106.971666666667,3486,3106.754,3106.758,3106.763,0.2586958601499886,29.50172917766172,0.2565787434577942,29.145116806030277,0.2311834692955017,22.14822196960449,0.0330287218093872,4.5732035636901855,0.0279464125633239,2.0324647426605225,L,False,True,5,R,200,,0.373,LeftResponse,incorrect,True,8.0
159,236,3111.0136666666667,9137,3110.95,3110.953,3110.957,0.2455904986544501,28.466231284763523,-0.2235793769359588,-25.914934158325195,-0.1904425621032714,-19.667749404907227,-0.1016216278076171,-11.778901100158691,-0.1422833278775215,-14.020438194274902,L,False,True,5,R,50,,0.355,RightResponse,correct,True,5.0
160,237,3115.152666666667,9142,3114.937,3114.943,3114.948,0.3059595868391848,31.78455520765169,-0.2794868946075439,-28.387571334838867,-0.2717641592025757,-30.08544158935547,-0.124492347240448,-14.29698371887207,-0.0889268517494201,-10.601908683776855,L,False,True,5,R,200,,0.283,RightResponse,correct,True,11.0
161,238,3118.3456666666666,3505,3118.135,3118.14,3118.147,0.3274396674687251,33.11809833202997,0.3226346969604492,32.887306213378906,0.3277087807655334,30.715288162231445,0.0558890700340271,3.90301513671875,-0.1270340979099273,-5.266080379486084,L,False,True,5,L,200,,0.237,RightResponse,incorrect,True,10.0
162,239,3121.846666666667,3512,3121.438,3121.442,3121.446,0.2042990161973081,24.933948439539847,0.2007129192352295,24.2056827545166,0.2158933281898498,22.67482566833496,0.0381105244159698,5.982199192047119,0.0228669941425323,3.1182241439819336,L,False,True,5,L,400,,0.328,LeftResponse,correct,True,13.0
