trialIndex,blockId,arrowDirection,latency,blankDuration,fixationDurationInSec,response,result,isSaccade,blankDurationInFrameCount
0,0,R,400,,0.237,RightResponse,correct,True,4.0
1,0,L,50,,0.217,RightResponse,incorrect,True,4.0
2,0,R,400,,0.215,RightResponse,correct,True,3.0
3,0,L,400,,0.31,RightResponse,incorrect,True,2.0
4,0,L,0,,0.358,LeftResponse,correct,True,4.0
5,0,L,400,,0.271,RightResponse,incorrect,True,5.0
6,0,L,400,,0.367,RightResponse,incorrect,False,8.0
7,0,R,100,,0.273,LeftResponse,incorrect,False,4.0
8,0,R,50,,0.334,RightResponse,correct,True,7.0
9,0,R,200,,0.307,RightResponse,correct,False,4.0
10,0,L,200,,0.335,RightResponse,incorrect,False,4.0
11,0,R,200,,0.215,RightResponse,correct,True,4.0
12,0,L,50,,0.313,LeftResponse,correct,True,6.0
13,0,R,100,,0.203,RightResponse,correct,False,4.0
14,0,R,50,,0.31,RightResponse,correct,True,5.0
15,0,L,200,,0.211,RightResponse,incorrect,False,3.0
16,0,R,100,,0.386,RightResponse,correct,True,4.0
17,0,L,100,,0.26,RightResponse,incorrect,False,3.0
18,0,R,0,,0.264,LeftResponse,incorrect,True,3.0
19,0,L,400,,0.317,RightResponse,incorrect,False,8.0
20,0,L,50,,0.229,LeftResponse,correct,True,4.0
21,0,R,100,,0.229,LeftResponse,incorrect,False,3.0
22,0,L,50,,0.234,RightResponse,incorrect,True,3.0
23,0,R,50,,0.347,LeftResponse,incorrect,True,6.0
24,0,L,100,,0.348,RightResponse,incorrect,True,3.0
25,0,R,200,,0.201,RightResponse,correct,True,3.0
26,0,R,50,,0.263,LeftResponse,incorrect,True,9.0
27,0,L,0,,0.221,RightResponse,incorrect,False,6.0
28,0,R,0,,0.262,RightResponse,correct,False,6.0
29,0,R,200,,0.298,LeftResponse,incorrect,True,2.0
30,0,R,400,,0.248,RightResponse,correct,True,8.0
31,0,L,0,,0.208,RightResponse,incorrect,True,6.0
32,0,R,0,,0.395,RightResponse,correct,False,9.0
33,0,R,400,,0.338,RightResponse,correct,True,7.0
34,0,L,200,,0.31,LeftResponse,correct,True,5.0
35,0,L,0,,0.242,RightResponse,incorrect,True,9.0
36,0,L,200,,0.332,LeftResponse,correct,True,4.0
37,0,R,0,,0.38,LeftResponse,incorrect,False,12.0
38,0,L,100,,0.289,RightResponse,incorrect,False,6.0
39,0,L,100,,0.216,LeftResponse,correct,True,6.0
40,1,L,0,,0.276,RightResponse,incorrect,False,12.0
41,1,L,0,,0.378,LeftResponse,correct,True,12.0
42,1,R,50,,0.374,RightResponse,correct,True,12.0
43,1,R,200,,0.256,RightResponse,correct,True,3.0
44,1,R,400,,0.332,RightResponse,correct,True,6.0
45,1,L,0,,0.273,RightResponse,incorrect,True,11.0
46,1,R,50,,0.201,RightResponse,correct,True,11.0
47,1,R,50,,0.36,RightResponse,correct,True,10.0
48,1,R,400,,0.206,RightResponse,correct,True,5.0
49,1,L,50,,0.241,RightResponse,incorrect,True,9.0
50,1,L,50,,0.365,LeftResponse,correct,True,12.0
51,1,R,400,,0.201,RightResponse,correct,True,4.0
52,1,L,100,,0.343,RightResponse,incorrect,True,5.0
53,1,R,0,,0.339,LeftResponse,incorrect,True,14.0
54,1,R,50,,0.293,RightResponse,correct,False,11.0
55,1,R,400,,0.32,RightResponse,correct,True,3.0
56,1,R,200,,0.395,LeftResponse,incorrect,True,2.0
57,1,L,400,,0.206,RightResponse,incorrect,True,2.0
58,1,L,200,,0.356,LeftResponse,correct,True,5.0
59,1,R,100,,0.271,RightResponse,correct,True,8.0
60,1,L,100,,0.266,LeftResponse,correct,True,7.0
61,1,L,400,,0.363,RightResponse,incorrect,True,5.0
62,1,L,400,,0.287,RightResponse,incorrect,True,8.0
63,1,R,0,,0.263,RightResponse,correct,False,17.0
64,1,L,200,,0.298,RightResponse,incorrect,False,4.0
65,1,L,50,,0.398,LeftResponse,correct,True,11.0
66,1,R,100,,0.32,RightResponse,correct,True,6.0
67,1,L,100,,0.38,RightResponse,incorrect,False,5.0
68,1,R,0,,0.342,RightResponse,correct,True,17.0
69,1,L,100,,0.344,RightResponse,incorrect,True,5.0
70,1,L,200,,0.383,LeftResponse,correct,True,4.0
71,1,L,0,,0.31,LeftResponse,correct,False,16.0
72,1,R,100,,0.335,RightResponse,correct,True,8.0
73,1,L,50,,0.269,RightResponse,incorrect,True,10.0
74,1,R,200,,0.356,LeftResponse,incorrect,True,3.0
75,1,L,400,,0.265,RightResponse,incorrect,True,11.0
76,1,R,0,,0.233,RightResponse,correct,True,16.0
77,1,R,200,,0.397,RightResponse,correct,True,6.0
78,1,L,200,,0.323,RightResponse,incorrect,True,5.0
79,1,R,100,,0.245,RightResponse,correct,True,7.0
80,2,R,200,,0.26,LeftResponse,incorrect,True,8.0
81,2,L,200,,0.351,RightResponse,incorrect,True,11.0
82,2,L,0,,0.224,RightResponse,incorrect,True,15.0
83,2,L,50,,0.332,LeftResponse,correct,True,13.0
84,2,L,100,,0.381,RightResponse,incorrect,True,6.0
85,2,L,100,,0.365,RightResponse,incorrect,True,9.0
86,2,L,400,,0.215,RightResponse,incorrect,True,14.0
87,2,R,400,,0.21,RightResponse,correct,True,17.0
88,2,L,50,,0.214,LeftResponse,correct,True,12.0
89,2,R,0,,0.293,RightResponse,correct,True,18.0
90,2,R,50,,0.352,RightResponse,correct,True,11.0
91,2,R,400,,0.345,RightResponse,correct,True,16.0
92,2,L,0,,0.272,RightResponse,incorrect,True,17.0
93,2,R,0,,0.217,RightResponse,correct,True,20.0
94,2,R,0,,0.235,RightResponse,correct,True,19.0
95,2,L,100,,0.234,LeftResponse,correct,True,12.0
96,2,L,400,,0.31,RightResponse,incorrect,True,15.0
97,2,R,0,,0.303,RightResponse,correct,True,18.0
98,2,L,200,,0.374,RightResponse,incorrect,False,14.0
99,2,R,50,,0.334,RightResponse,correct,True,10.0
100,2,R,100,,0.379,RightResponse,correct,True,11.0
101,2,L,400,,0.203,LeftResponse,correct,True,18.0
102,2,R,400,,0.305,RightResponse,correct,False,17.0
103,2,R,100,,0.363,RightResponse,correct,True,10.0
104,2,L,200,,0.356,RightResponse,incorrect,True,14.0
105,2,L,50,,0.233,RightResponse,incorrect,True,9.0
106,2,R,50,,0.298,RightResponse,correct,True,12.0
107,2,L,0,,0.215,LeftResponse,correct,True,17.0
108,2,R,100,,0.351,RightResponse,correct,False,9.0
109,2,L,200,,0.392,LeftResponse,correct,True,17.0
110,2,R,400,,0.336,RightResponse,correct,True,17.0
111,2,R,200,,0.321,RightResponse,correct,True,16.0
112,2,L,100,,0.264,RightResponse,incorrect,True,9.0
113,2,R,50,,0.325,RightResponse,correct,True,11.0
114,2,R,100,,0.383,RightResponse,correct,True,12.0
115,2,R,200,,0.394,RightResponse,correct,False,15.0
116,2,L,400,,0.32,LeftResponse,correct,True,16.0
117,2,R,200,,0.293,RightResponse,correct,True,15.0
118,2,L,50,,0.25,LeftResponse,correct,True,10.0
119,2,L,0,,0.368,RightResponse,incorrect,True,16.0
120,3,R,200,,0.254,RightResponse,correct,True,14.0
121,3,L,400,,0.264,LeftResponse,correct,True,15.0
122,3,R,0,,0.35,RightResponse,correct,True,19.0
123,3,R,100,,0.35,RightResponse,correct,True,11.0
124,3,R,50,,0.21,RightResponse,correct,True,9.0
125,3,R,100,,0.364,RightResponse,correct,False,10.0
126,3,L,400,,0.309,LeftResponse,correct,False,14.0
127,3,R,0,,0.307,RightResponse,correct,True,18.0
128,3,L,50,,0.209,RightResponse,incorrect,False,8.0
129,3,L,50,,0.339,RightResponse,incorrect,True,8.0
130,3,R,200,,0.356,RightResponse,correct,False,13.0
131,3,L,400,,0.32,RightResponse,incorrect,True,14.0
132,3,L,0,,0.323,LeftResponse,correct,False,17.0
133,3,R,100,,0.337,RightResponse,correct,True,10.0
134,3,R,50,,0.387,RightResponse,correct,True,11.0
135,3,L,100,,0.312,RightResponse,incorrect,False,9.0
136,3,R,200,,0.256,RightResponse,correct,True,13.0
137,3,R,400,,0.26,RightResponse,correct,False,17.0
138,3,L,400,,0.384,RightResponse,incorrect,True,17.0
139,3,L,0,,0.339,RightResponse,incorrect,True,17.0
140,3,L,100,,0.239,LeftResponse,correct,True,9.0
141,3,R,400,,0.226,RightResponse,correct,True,20.0
142,3,R,100,,0.255,RightResponse,correct,False,8.0
143,3,L,50,,0.311,LeftResponse,correct,True,10.0
144,3,R,400,,0.289,RightResponse,correct,True,19.0
145,3,L,200,,0.231,LeftResponse,correct,True,12.0
146,3,L,200,,0.363,RightResponse,incorrect,True,11.0
147,3,L,0,,0.35,RightResponse,incorrect,True,20.0
148,3,L,100,,0.28,RightResponse,incorrect,True,8.0
149,3,L,0,,0.278,RightResponse,incorrect,True,23.0
150,3,R,400,,0.221,RightResponse,correct,True,18.0
151,3,R,50,,0.327,RightResponse,correct,False,9.0
152,3,L,200,,0.372,LeftResponse,correct,True,14.0
153,3,R,50,,0.392,RightResponse,correct,True,9.0
154,3,R,200,,0.242,RightResponse,correct,True,13.0
155,3,L,100,,0.31,RightResponse,incorrect,False,11.0
156,3,R,0,,0.307,LeftResponse,incorrect,True,26.0
157,3,L,200,,0.26,LeftResponse,correct,True,12.0
158,3,L,50,,0.316,RightResponse,incorrect,True,8.0
159,3,R,0,,0.239,RightResponse,correct,True,29.0
160,4,L,100,,0.288,RightResponse,incorrect,False,11.0
161,4,L,400,,0.296,LeftResponse,correct,True,17.0
162,4,R,200,,0.255,RightResponse,correct,True,11.0
163,4,L,200,,0.378,RightResponse,incorrect,True,10.0
164,4,R,200,,0.358,RightResponse,correct,True,13.0
165,4,R,400,,0.343,invalid,invalid,True,16.0
166,4,L,200,,0.29,RightResponse,incorrect,True,12.0
167,4,L,400,,0.374,RightResponse,incorrect,True,16.0
168,4,R,200,,0.215,RightResponse,correct,True,15.0
169,4,R,0,,0.272,RightResponse,correct,True,28.0
170,4,L,200,,0.339,LeftResponse,correct,False,14.0
171,4,R,50,,0.386,RightResponse,correct,True,11.0
172,4,R,100,,0.228,RightResponse,correct,False,11.0
173,4,R,0,,0.225,RightResponse,correct,False,27.0
174,4,R,50,,0.343,LeftResponse,incorrect,True,10.0
175,4,R,100,,0.273,RightResponse,correct,False,11.0
176,4,L,400,,0.364,LeftResponse,correct,True,19.0
177,4,L,0,,0.278,RightResponse,incorrect,True,27.0
178,4,R,200,,0.398,RightResponse,correct,False,14.0
179,4,L,200,,0.244,RightResponse,incorrect,False,14.0
180,4,R,0,,0.261,RightResponse,correct,True,30.0
181,4,R,100,,0.332,RightResponse,correct,True,11.0
182,4,R,400,,0.32,RightResponse,correct,True,18.0
183,4,L,50,,0.216,LeftResponse,correct,False,13.0
184,4,L,50,,0.289,LeftResponse,correct,True,13.0
185,4,L,400,,0.284,LeftResponse,correct,True,17.0
186,4,L,50,,0.221,RightResponse,incorrect,True,12.0
187,4,L,0,,0.217,LeftResponse,correct,False,29.0
188,4,R,400,,0.387,RightResponse,correct,True,16.0
189,4,R,50,,0.302,RightResponse,correct,True,15.0
190,4,L,100,,0.236,LeftResponse,correct,True,10.0
191,4,L,0,,0.291,RightResponse,incorrect,True,29.0
192,4,R,100,,0.292,RightResponse,correct,False,9.0
193,4,L,100,,0.393,LeftResponse,correct,True,9.0
194,4,L,50,,0.28,LeftResponse,correct,True,14.0
195,4,R,400,,0.321,RightResponse,correct,True,15.0
196,4,R,50,,0.385,RightResponse,correct,False,13.0
197,4,L,0,,0.343,LeftResponse,correct,True,32.0
198,4,L,100,,0.375,RightResponse,incorrect,True,8.0
199,4,R,0,,0.369,RightResponse,correct,False,31.0
200,5,R,100,,0.26,RightResponse,correct,False,11.0
201,5,L,100,,0.328,LeftResponse,correct,False,11.0
202,5,R,0,,0.222,RightResponse,correct,False,31.0
203,5,L,200,,0.357,LeftResponse,correct,True,14.0
204,5,L,100,,0.335,LeftResponse,correct,False,11.0
205,5,L,400,,0.206,RightResponse,incorrect,True,14.0
206,5,L,400,,0.218,LeftResponse,correct,True,17.0
207,5,L,100,,0.385,RightResponse,incorrect,True,11.0
208,5,L,50,,0.267,RightResponse,incorrect,True,13.0
209,5,R,200,,0.341,RightResponse,correct,True,13.0
210,5,L,50,,0.35,LeftResponse,correct,True,16.0
211,5,L,50,,0.22,LeftResponse,correct,True,15.0
212,5,R,0,,0.222,RightResponse,correct,True,31.0
213,5,L,200,,0.219,RightResponse,incorrect,True,12.0
214,5,R,50,,0.342,RightResponse,correct,False,14.0
215,5,L,0,,0.246,RightResponse,incorrect,True,30.0
216,5,R,50,,0.22,RightResponse,correct,True,14.0
217,5,L,0,,0.296,RightResponse,incorrect,True,33.0
218,5,R,200,,0.267,RightResponse,correct,True,15.0
219,5,R,100,,0.227,RightResponse,correct,True,14.0
220,5,L,50,,0.336,RightResponse,incorrect,True,13.0
221,5,R,50,,0.203,RightResponse,correct,True,16.0
222,5,R,400,,0.375,RightResponse,correct,True,16.0
223,5,L,100,,0.381,LeftResponse,correct,True,13.0
224,5,L,200,,0.367,RightResponse,incorrect,True,14.0
225,5,R,0,,0.253,RightResponse,correct,True,36.0
226,5,R,200,,0.313,RightResponse,correct,True,17.0
227,5,L,0,,0.282,LeftResponse,correct,True,35.0
228,5,R,100,,0.237,invalid,invalid,True,12.0
229,5,R,50,,0.293,LeftResponse,incorrect,True,15.0
230,5,R,400,,0.266,RightResponse,correct,True,15.0
231,5,L,200,,0.242,LeftResponse,correct,True,16.0
232,5,R,100,,0.244,RightResponse,correct,True,12.0
233,5,L,400,,0.237,RightResponse,incorrect,True,14.0
234,5,R,400,,0.276,RightResponse,correct,False,17.0
235,5,L,400,,0.284,LeftResponse,correct,True,17.0
236,5,L,0,,0.38,LeftResponse,correct,True,34.0
237,5,R,400,,0.339,RightResponse,correct,True,16.0
238,5,R,0,,0.317,RightResponse,correct,True,33.0
239,5,R,200,,0.332,RightResponse,correct,True,15.0
