trialIndex,blockId,arrowDirection,latency,blankDuration,fixationDurationInSec,response,result,isSaccade,blankDurationInFrameCount
0,0,L,50,,0.34,LeftResponse,correct,True,2.0
1,0,R,0,,0.218,LeftResponse,incorrect,True,2.0
2,0,L,100,,0.379,RightResponse,incorrect,True,2.0
3,0,R,0,,0.332,LeftResponse,incorrect,True,5.0
4,0,R,400,,0.225,LeftResponse,incorrect,True,2.0
5,0,R,400,,0.36,LeftResponse,incorrect,True,5.0
6,0,R,200,,0.251,LeftResponse,incorrect,True,2.0
7,0,R,50,,0.252,RightResponse,correct,True,1.0
8,0,L,400,,0.2,RightResponse,incorrect,True,8.0
9,0,R,0,,0.207,RightResponse,correct,True,8.0
10,0,R,100,,0.347,LeftResponse,incorrect,True,5.0
11,0,R,200,,0.355,RightResponse,correct,True,5.0
12,0,L,50,,0.26,RightResponse,incorrect,True,1.0
13,0,R,200,,0.34,RightResponse,correct,True,4.0
14,0,L,400,,0.393,LeftResponse,correct,True,11.0
15,0,L,400,,0.352,LeftResponse,correct,True,10.0
16,0,R,0,,0.329,RightResponse,correct,True,7.0
17,0,L,200,,0.261,RightResponse,incorrect,True,3.0
18,0,L,0,,0.39,LeftResponse,correct,True,6.0
19,0,L,0,,0.223,LeftResponse,correct,True,5.0
20,0,L,100,,0.216,LeftResponse,correct,True,8.0
21,0,L,200,,0.353,RightResponse,incorrect,True,6.0
22,0,R,50,,0.321,LeftResponse,incorrect,True,4.0
23,0,L,200,,0.347,LeftResponse,correct,True,9.0
24,0,L,0,,0.338,LeftResponse,correct,True,4.0
25,0,R,100,,0.262,RightResponse,correct,True,7.0
26,0,L,400,,0.269,RightResponse,incorrect,True,9.0
27,0,L,200,,0.333,RightResponse,incorrect,True,8.0
28,0,R,400,,0.387,RightResponse,correct,True,12.0
29,0,L,50,,0.281,NoResponse,incorrect,True,7.0
30,0,L,0,,0.391,LeftResponse,correct,True,3.0
31,0,L,100,,0.387,RightResponse,incorrect,True,6.0
32,0,R,100,,0.36,LeftResponse,incorrect,True,9.0
33,0,R,50,,0.3,LeftResponse,incorrect,True,10.0
34,0,R,400,,0.326,RightResponse,correct,True,11.0
35,0,R,200,,0.309,RightResponse,correct,True,11.0
36,0,L,50,,0.395,LeftResponse,correct,True,13.0
37,0,L,100,,0.321,RightResponse,incorrect,True,12.0
38,0,R,100,,0.23,RightResponse,correct,True,15.0
39,0,R,50,,0.255,RightResponse,correct,True,12.0
40,1,R,200,,0.335,RightResponse,correct,True,10.0
41,1,L,400,,0.258,LeftResponse,correct,True,10.0
42,1,L,100,,0.286,LeftResponse,correct,True,14.0
43,1,L,200,,0.356,RightResponse,incorrect,True,9.0
44,1,L,100,,0.389,RightResponse,incorrect,True,13.0
45,1,R,0,,0.255,LeftResponse,incorrect,True,2.0
46,1,L,50,,0.229,RightResponse,incorrect,True,11.0
47,1,L,100,,0.218,RightResponse,incorrect,True,16.0
48,1,R,50,,0.319,LeftResponse,incorrect,True,14.0
49,1,R,200,,0.285,LeftResponse,incorrect,True,12.0
50,1,L,0,,0.2,LeftResponse,correct,True,5.0
51,1,R,400,,0.341,LeftResponse,incorrect,True,9.0
52,1,R,50,,0.264,LeftResponse,incorrect,True,17.0
53,1,L,400,,0.251,LeftResponse,correct,True,12.0
54,1,R,100,,0.28,LeftResponse,incorrect,True,19.0
55,1,L,50,,0.317,LeftResponse,correct,True,20.0
56,1,L,200,,0.337,LeftResponse,correct,True,15.0
57,1,R,400,,0.301,LeftResponse,incorrect,True,11.0
58,1,L,0,,0.245,RightResponse,incorrect,True,4.0
59,1,L,50,,0.399,LeftResponse,correct,True,19.0
60,1,L,50,,0.328,LeftResponse,correct,True,18.0
61,1,R,100,,0.247,LeftResponse,incorrect,True,22.0
62,1,L,200,,0.218,LeftResponse,correct,True,14.0
63,1,R,0,,0.354,RightResponse,correct,True,7.0
64,1,R,100,,0.396,RightResponse,correct,True,25.0
65,1,R,100,,0.211,RightResponse,correct,True,24.0
66,1,R,400,,0.2,RightResponse,correct,True,14.0
67,1,L,100,,0.231,LeftResponse,correct,True,23.0
68,1,R,200,,0.341,LeftResponse,incorrect,True,13.0
69,1,R,0,,0.317,RightResponse,correct,True,6.0
70,1,L,400,,0.306,RightResponse,incorrect,True,13.0
71,1,R,50,,0.314,RightResponse,correct,True,17.0
72,1,L,400,,0.212,LeftResponse,correct,True,16.0
73,1,R,0,,0.268,LeftResponse,incorrect,True,5.0
74,1,R,400,,0.383,RightResponse,correct,True,15.0
75,1,R,200,,0.279,LeftResponse,incorrect,True,16.0
76,1,L,0,,0.392,LeftResponse,correct,True,8.0
77,1,L,200,,0.324,LeftResponse,correct,True,19.0
78,1,L,0,,0.396,LeftResponse,correct,True,7.0
79,1,R,50,,0.288,LeftResponse,incorrect,True,16.0
80,2,L,200,,0.329,LeftResponse,correct,True,18.0
81,2,L,100,,0.323,LeftResponse,correct,True,22.0
82,2,R,0,,0.225,LeftResponse,incorrect,True,6.0
83,2,L,400,,0.274,LeftResponse,correct,True,14.0
84,2,R,400,,0.399,RightResponse,correct,True,13.0
85,2,R,50,,0.226,RightResponse,correct,True,19.0
86,2,R,100,,0.21,RightResponse,correct,True,21.0
87,2,R,100,,0.264,RightResponse,correct,True,20.0
88,2,L,50,,0.305,RightResponse,incorrect,True,18.0
89,2,R,100,,0.384,LeftResponse,incorrect,True,19.0
90,2,R,50,,0.384,LeftResponse,incorrect,True,21.0
91,2,L,400,,0.217,LeftResponse,correct,True,12.0
92,2,R,200,,0.394,LeftResponse,incorrect,True,17.0
93,2,R,400,,0.26,NoResponse,incorrect,True,11.0
94,2,R,200,,0.35,LeftResponse,incorrect,True,20.0
95,2,L,400,,0.279,LeftResponse,correct,True,14.0
96,2,R,0,,0.321,LeftResponse,incorrect,True,9.0
97,2,L,0,,0.353,RightResponse,incorrect,True,12.0
98,2,L,200,,0.397,RightResponse,incorrect,True,23.0
99,2,R,200,,0.294,LeftResponse,incorrect,True,26.0
100,2,L,200,,0.385,LeftResponse,correct,True,29.0
101,2,L,0,,0.222,LeftResponse,correct,True,15.0
102,2,L,0,,0.221,LeftResponse,correct,True,14.0
103,2,R,200,,0.286,LeftResponse,incorrect,True,28.0
104,2,L,50,,0.329,RightResponse,incorrect,True,24.0
105,2,R,100,,0.345,LeftResponse,incorrect,True,22.0
106,2,R,400,,0.376,LeftResponse,incorrect,True,13.0
107,2,R,0,,0.32,RightResponse,correct,True,13.0
108,2,L,100,,0.299,RightResponse,incorrect,True,25.0
109,2,R,400,,0.337,RightResponse,correct,True,16.0
110,2,L,400,,0.296,RightResponse,incorrect,True,15.0
111,2,R,50,,0.247,RightResponse,correct,True,27.0
112,2,L,50,,0.268,RightResponse,incorrect,True,26.0
113,2,L,50,,0.288,LeftResponse,correct,True,29.0
114,2,L,100,,0.226,LeftResponse,correct,True,28.0
115,2,R,0,,0.249,LeftResponse,incorrect,True,12.0
116,2,L,100,,0.292,LeftResponse,correct,True,27.0
117,2,L,0,,0.391,LeftResponse,correct,True,15.0
118,2,L,200,,0.2,LeftResponse,correct,True,31.0
119,2,R,50,,0.236,LeftResponse,incorrect,True,28.0
120,3,L,200,,0.348,LeftResponse,correct,True,30.0
121,3,L,200,,0.374,LeftResponse,correct,True,29.0
122,3,L,400,,0.342,LeftResponse,correct,True,18.0
123,3,R,0,,0.254,LeftResponse,incorrect,True,14.0
124,3,L,50,,0.246,LeftResponse,correct,True,31.0
125,3,L,0,,0.228,LeftResponse,correct,True,17.0
126,3,L,50,,0.329,LeftResponse,correct,True,30.0
127,3,R,400,,0.343,LeftResponse,incorrect,True,17.0
128,3,R,0,,0.299,RightResponse,correct,True,16.0
129,3,R,100,,0.323,RightResponse,correct,True,26.0
130,3,R,50,,0.394,RightResponse,correct,True,29.0
131,3,L,400,,0.202,LeftResponse,correct,True,20.0
132,3,R,50,,0.345,LeftResponse,incorrect,True,28.0
133,3,R,200,,0.276,LeftResponse,incorrect,True,28.0
134,3,R,400,,0.237,RightResponse,correct,True,19.0
135,3,L,50,,0.327,LeftResponse,correct,True,31.0
136,3,L,200,,0.337,LeftResponse,correct,True,31.0
137,3,R,400,,0.298,LeftResponse,incorrect,True,18.0
138,3,L,100,,0.314,LeftResponse,correct,True,25.0
139,3,R,0,,0.314,LeftResponse,incorrect,True,15.0
140,3,L,0,,0.294,RightResponse,incorrect,True,18.0
141,3,L,0,,0.253,RightResponse,incorrect,True,21.0
142,3,R,0,,0.2,LeftResponse,incorrect,True,24.0
143,3,L,200,,0.299,RightResponse,incorrect,True,30.0
144,3,R,50,,0.215,RightResponse,correct,True,30.0
145,3,R,100,,0.364,RightResponse,correct,True,24.0
146,3,L,400,,0.206,LeftResponse,correct,True,21.0
147,3,L,400,,0.263,LeftResponse,correct,True,20.0
148,3,R,50,,0.251,LeftResponse,incorrect,True,29.0
149,3,R,400,,0.291,LeftResponse,incorrect,True,19.0
150,3,R,100,,0.334,RightResponse,correct,True,23.0
151,3,R,200,,0.349,LeftResponse,incorrect,True,33.0
152,3,L,100,,0.329,LeftResponse,correct,True,22.0
153,3,R,200,,0.379,LeftResponse,incorrect,True,36.0
154,3,L,50,,0.362,RightResponse,incorrect,True,32.0
155,3,R,100,,0.278,RightResponse,correct,True,21.0
156,3,R,200,,0.376,RightResponse,correct,True,39.0
157,3,L,100,,0.327,RightResponse,incorrect,True,20.0
158,3,L,0,,0.319,RightResponse,incorrect,True,27.0
159,3,L,100,,0.206,LeftResponse,correct,True,23.0
160,4,L,400,,0.226,LeftResponse,correct,True,22.0
161,4,L,100,,0.39,LeftResponse,correct,True,22.0
162,4,R,50,,0.287,RightResponse,correct,True,35.0
163,4,L,50,,0.364,LeftResponse,correct,True,34.0
164,4,R,100,,0.379,LeftResponse,incorrect,True,21.0
165,4,L,400,,0.243,LeftResponse,correct,True,21.0
166,4,R,200,,0.376,RightResponse,correct,True,38.0
167,4,L,50,,0.215,LeftResponse,correct,True,33.0
168,4,R,100,,0.266,LeftResponse,incorrect,True,24.0
169,4,R,0,,0.334,LeftResponse,incorrect,True,30.0
170,4,R,0,,0.331,RightResponse,correct,True,33.0
171,4,L,200,,0.281,LeftResponse,correct,True,37.0
172,4,L,50,,0.296,LeftResponse,correct,True,32.0
173,4,R,50,,0.232,LeftResponse,incorrect,True,31.0
174,4,L,0,,0.261,LeftResponse,correct,True,32.0
175,4,R,200,,0.323,RightResponse,correct,True,36.0
176,4,R,0,,0.317,RightResponse,correct,True,31.0
177,4,R,200,,0.259,RightResponse,correct,True,35.0
178,4,R,50,,0.394,RightResponse,correct,True,34.0
179,4,L,0,,0.31,LeftResponse,correct,True,30.0
180,4,R,200,,0.337,RightResponse,correct,True,34.0
181,4,L,400,,0.228,LeftResponse,correct,True,20.0
182,4,R,50,,0.259,RightResponse,correct,True,33.0
183,4,L,200,,0.377,LeftResponse,correct,True,33.0
184,4,R,400,,0.24,LeftResponse,incorrect,True,19.0
185,4,L,200,,0.363,LeftResponse,correct,True,32.0
186,4,L,400,,0.355,LeftResponse,correct,True,22.0
187,4,L,50,,0.307,LeftResponse,correct,True,32.0
188,4,L,0,,0.301,LeftResponse,correct,True,29.0
189,4,R,0,,0.376,LeftResponse,incorrect,True,28.0
190,4,R,400,,0.251,LeftResponse,incorrect,True,21.0
191,4,R,400,,0.33,RightResponse,correct,True,24.0
192,4,L,200,,0.331,LeftResponse,correct,True,31.0
193,4,L,100,,0.316,LeftResponse,correct,True,27.0
194,4,L,0,,0.329,LeftResponse,correct,True,31.0
195,4,R,100,,0.384,LeftResponse,incorrect,True,26.0
196,4,L,100,,0.257,LeftResponse,correct,True,29.0
197,4,R,100,,0.389,LeftResponse,incorrect,True,28.0
198,4,R,400,,0.273,LeftResponse,incorrect,True,23.0
199,4,L,100,,0.252,LeftResponse,correct,True,31.0
200,5,L,400,,0.222,invalid,invalid,True,26.0
201,5,R,100,,0.388,LeftResponse,incorrect,True,30.0
202,5,L,400,,0.331,invalid,invalid,True,26.0
203,5,R,50,,0.289,invalid,invalid,True,31.0
204,5,R,400,,0.282,invalid,invalid,True,26.0
205,5,R,0,,0.223,invalid,invalid,True,30.0
206,5,R,200,,0.378,LeftResponse,incorrect,True,30.0
207,5,L,200,,0.353,invalid,invalid,True,33.0
208,5,L,400,,0.299,invalid,invalid,True,26.0
209,5,L,200,,0.275,invalid,invalid,True,33.0
210,5,R,0,,0.217,invalid,invalid,True,30.0
211,5,L,50,,0.357,LeftResponse,correct,True,31.0
212,5,R,400,,0.389,LeftResponse,incorrect,True,26.0
213,5,L,0,,0.399,LeftResponse,correct,True,30.0
214,5,R,0,,0.254,LeftResponse,incorrect,True,29.0
215,5,L,400,,0.35,invalid,invalid,True,29.0
216,5,R,100,,0.345,invalid,invalid,True,33.0
217,5,L,50,,0.26,LeftResponse,correct,True,30.0
218,5,R,0,,0.256,LeftResponse,incorrect,True,32.0
219,5,L,200,,0.239,invalid,invalid,True,33.0
220,5,R,50,,0.265,invalid,invalid,True,29.0
221,5,L,100,,0.243,invalid,invalid,True,33.0
222,5,R,200,,0.302,invalid,invalid,True,33.0
223,5,L,0,,0.247,LeftResponse,correct,True,35.0
224,5,R,100,,0.34,invalid,invalid,True,33.0
225,5,L,0,,0.285,LeftResponse,correct,True,34.0
226,5,L,100,,0.318,LeftResponse,correct,True,33.0
227,5,R,200,,0.358,LeftResponse,incorrect,True,33.0
228,5,R,400,,0.277,invalid,invalid,True,29.0
229,5,L,100,,0.243,LeftResponse,correct,True,32.0
230,5,R,200,,0.367,invalid,invalid,True,36.0
231,5,R,50,,0.269,invalid,invalid,True,29.0
232,5,R,50,,0.253,invalid,invalid,True,29.0
233,5,L,0,,0.365,RightResponse,incorrect,True,33.0
234,5,R,100,,0.347,RightResponse,correct,True,31.0
235,5,L,200,,0.205,LeftResponse,correct,True,36.0
236,5,R,400,,0.223,RightResponse,correct,True,29.0
237,5,L,100,,0.309,LeftResponse,correct,True,30.0
238,5,L,50,,0.368,LeftResponse,correct,True,29.0
239,5,L,50,,0.353,LeftResponse,correct,True,28.0
