trialIndex,blockId,arrowDirection,latency,blankDuration,fixationDurationInSec,response,result,isSaccade,blankDurationInFrameCount
0,0,R,400,,0.311,invalid,invalid,True,4.0
1,0,L,100,,0.244,invalid,invalid,True,4.0
2,0,L,0,,0.378,RightResponse,incorrect,True,4.0
3,0,R,200,,0.252,invalid,invalid,True,4.0
4,0,L,50,,0.331,invalid,invalid,True,4.0
5,0,L,100,,0.397,RightResponse,incorrect,True,4.0
6,0,R,200,,0.362,LeftResponse,incorrect,True,4.0
7,0,R,50,,0.237,invalid,invalid,True,4.0
8,0,R,0,,0.242,RightResponse,correct,True,7.0
9,0,R,200,,0.341,RightResponse,correct,True,7.0
10,0,R,0,,0.322,RightResponse,correct,True,6.0
11,0,L,100,,0.343,LeftResponse,correct,True,7.0
12,0,R,400,,0.309,RightResponse,correct,True,4.0
13,0,L,200,,0.315,RightResponse,incorrect,True,6.0
14,0,R,100,,0.387,RightResponse,correct,True,6.0
15,0,R,100,,0.247,RightResponse,correct,True,5.0
16,0,L,400,,0.315,RightResponse,incorrect,True,3.0
17,0,L,0,,0.267,invalid,invalid,True,5.0
18,0,R,100,,0.286,RightResponse,correct,True,4.0
19,0,R,100,,0.246,LeftResponse,incorrect,True,3.0
20,0,R,0,,0.367,RightResponse,correct,True,5.0
21,0,R,400,,0.318,RightResponse,correct,True,6.0
22,0,L,200,,0.292,RightResponse,incorrect,True,9.0
23,0,L,50,,0.233,RightResponse,incorrect,True,4.0
24,0,L,0,,0.249,RightResponse,incorrect,True,4.0
25,0,L,50,,0.227,LeftResponse,correct,True,7.0
26,0,R,50,,0.279,invalid,invalid,True,6.0
27,0,L,50,,0.292,RightResponse,incorrect,True,6.0
28,0,L,400,,0.39,RightResponse,incorrect,True,5.0
29,0,L,400,,0.267,invalid,invalid,True,8.0
30,0,R,50,,0.262,RightResponse,correct,True,9.0
31,0,R,0,,0.35,LeftResponse,incorrect,True,7.0
32,0,R,400,,0.316,RightResponse,correct,True,8.0
33,0,R,50,,0.258,RightResponse,correct,True,8.0
34,0,L,0,,0.366,RightResponse,incorrect,True,10.0
35,0,L,200,,0.304,RightResponse,incorrect,True,12.0
36,0,L,100,,0.237,RightResponse,incorrect,True,6.0
37,0,R,200,,0.272,RightResponse,correct,True,15.0
38,0,L,200,,0.34,LeftResponse,correct,True,14.0
39,0,L,400,,0.309,LeftResponse,correct,True,7.0
40,1,R,50,,0.399,RightResponse,correct,True,7.0
41,1,L,400,,0.282,RightResponse,incorrect,True,6.0
42,1,L,400,,0.304,invalid,invalid,True,9.0
43,1,L,100,,0.35,RightResponse,incorrect,True,9.0
44,1,L,50,,0.238,LeftResponse,correct,True,6.0
45,1,L,50,,0.253,RightResponse,incorrect,True,5.0
46,1,L,50,,0.237,RightResponse,incorrect,True,8.0
47,1,R,0,,0.257,RightResponse,correct,True,13.0
48,1,L,100,,0.369,LeftResponse,correct,True,12.0
49,1,R,0,,0.398,LeftResponse,incorrect,True,12.0
50,1,L,0,,0.368,RightResponse,incorrect,True,15.0
51,1,R,400,,0.34,RightResponse,correct,True,9.0
52,1,R,50,,0.269,RightResponse,correct,True,11.0
53,1,L,200,,0.287,RightResponse,incorrect,True,13.0
54,1,R,400,,0.286,RightResponse,correct,True,8.0
55,1,R,50,,0.275,RightResponse,correct,True,10.0
56,1,R,100,,0.378,RightResponse,correct,False,11.0
57,1,L,200,,0.397,LeftResponse,correct,True,16.0
58,1,R,100,,0.287,LeftResponse,incorrect,True,11.0
59,1,L,100,,0.281,RightResponse,incorrect,True,14.0
60,1,R,100,,0.283,RightResponse,correct,True,17.0
61,1,L,200,,0.324,LeftResponse,correct,True,15.0
62,1,L,400,,0.275,RightResponse,incorrect,True,7.0
63,1,R,0,,0.258,invalid,invalid,True,18.0
64,1,L,0,,0.251,RightResponse,incorrect,True,18.0
65,1,L,200,,0.227,RightResponse,incorrect,True,14.0
66,1,R,200,,0.381,RightResponse,correct,True,17.0
67,1,L,50,,0.367,RightResponse,incorrect,True,9.0
68,1,R,200,,0.336,RightResponse,correct,True,16.0
69,1,R,50,,0.348,RightResponse,correct,True,12.0
70,1,R,100,,0.208,RightResponse,correct,True,16.0
71,1,R,200,,0.367,RightResponse,correct,True,15.0
72,1,R,400,,0.374,RightResponse,correct,True,10.0
73,1,L,0,,0.281,LeftResponse,correct,True,21.0
74,1,L,400,,0.32,LeftResponse,correct,True,9.0
75,1,R,400,,0.272,RightResponse,correct,True,8.0
76,1,L,0,,0.201,LeftResponse,correct,False,20.0
77,1,R,0,,0.293,RightResponse,correct,True,20.0
78,1,L,100,,0.251,LeftResponse,correct,True,15.0
79,1,R,200,,0.387,RightResponse,correct,True,14.0
80,2,L,100,,0.312,RightResponse,incorrect,True,14.0
81,2,R,100,,0.242,RightResponse,correct,True,17.0
82,2,R,200,,0.313,RightResponse,correct,True,13.0
83,2,L,400,,0.244,RightResponse,incorrect,True,7.0
84,2,L,50,,0.227,LeftResponse,correct,True,11.0
85,2,R,100,,0.228,RightResponse,correct,True,16.0
86,2,L,50,,0.206,LeftResponse,correct,True,10.0
87,2,R,0,,0.27,invalid,invalid,True,19.0
88,2,L,400,,0.388,RightResponse,incorrect,True,10.0
89,2,L,400,,0.352,LeftResponse,correct,True,13.0
90,2,L,200,,0.325,LeftResponse,correct,True,12.0
91,2,R,200,,0.342,RightResponse,correct,True,11.0
92,2,L,400,,0.279,LeftResponse,correct,True,12.0
93,2,R,200,,0.366,RightResponse,correct,True,10.0
94,2,L,0,,0.218,LeftResponse,correct,True,19.0
95,2,L,0,,0.358,RightResponse,incorrect,True,18.0
96,2,R,100,,0.296,RightResponse,correct,True,15.0
97,2,R,400,,0.377,RightResponse,correct,True,11.0
98,2,L,100,,0.268,RightResponse,incorrect,True,14.0
99,2,L,0,,0.271,LeftResponse,correct,True,21.0
100,2,L,200,,0.353,LeftResponse,correct,True,9.0
101,2,L,100,,0.349,RightResponse,incorrect,True,17.0
102,2,R,50,,0.247,LeftResponse,incorrect,True,9.0
103,2,R,50,,0.366,RightResponse,correct,True,12.0
104,2,R,200,,0.32,LeftResponse,incorrect,True,8.0
105,2,L,0,,0.222,RightResponse,incorrect,True,20.0
106,2,L,100,,0.379,LeftResponse,correct,False,20.0
107,2,R,400,,0.245,RightResponse,correct,True,10.0
108,2,R,0,,0.237,RightResponse,correct,True,23.0
109,2,L,50,,0.313,LeftResponse,correct,True,11.0
110,2,L,200,,0.386,RightResponse,incorrect,True,11.0
111,2,R,0,,0.278,LeftResponse,incorrect,True,22.0
112,2,L,200,,0.34,LeftResponse,correct,True,14.0
113,2,L,50,,0.275,LeftResponse,correct,True,10.0
114,2,R,50,,0.372,RightResponse,correct,True,9.0
115,2,R,0,,0.245,RightResponse,correct,True,25.0
116,2,R,100,,0.258,RightResponse,correct,True,20.0
117,2,R,400,,0.231,RightResponse,correct,True,9.0
118,2,R,400,,0.315,RightResponse,correct,True,8.0
119,2,R,50,,0.264,RightResponse,correct,True,8.0
120,3,R,100,,0.378,RightResponse,correct,True,19.0
121,3,R,0,,0.286,RightResponse,correct,True,24.0
122,3,L,100,,0.365,LeftResponse,correct,True,18.0
123,3,R,400,,0.311,RightResponse,correct,True,7.0
124,3,L,50,,0.322,LeftResponse,correct,True,7.0
125,3,L,0,,0.324,RightResponse,incorrect,True,23.0
126,3,R,50,,0.362,RightResponse,correct,True,6.0
127,3,R,400,,0.288,LeftResponse,incorrect,True,6.0
128,3,L,100,,0.303,LeftResponse,correct,True,17.0
129,3,L,0,,0.275,LeftResponse,correct,True,26.0
130,3,L,100,,0.397,LeftResponse,correct,True,16.0
131,3,L,400,,0.396,RightResponse,incorrect,True,9.0
132,3,L,0,,0.383,LeftResponse,correct,True,25.0
133,3,R,50,,0.23,RightResponse,correct,True,5.0
134,3,L,200,,0.242,LeftResponse,correct,True,13.0
135,3,R,200,,0.315,RightResponse,correct,True,12.0
136,3,L,200,,0.299,RightResponse,incorrect,True,11.0
137,3,L,50,,0.384,LeftResponse,correct,True,4.0
138,3,R,0,,0.299,RightResponse,correct,True,24.0
139,3,L,100,,0.326,LeftResponse,correct,True,15.0
140,3,R,100,,0.391,LeftResponse,incorrect,True,14.0
141,3,R,50,,0.38,RightResponse,correct,True,3.0
142,3,R,50,,0.392,RightResponse,correct,True,2.0
143,3,R,400,,0.257,RightResponse,correct,True,12.0
144,3,R,100,,0.384,RightResponse,correct,True,17.0
145,3,R,200,,0.207,RightResponse,correct,True,14.0
146,3,R,0,,0.329,RightResponse,correct,True,23.0
147,3,L,400,,0.284,LeftResponse,correct,True,11.0
148,3,R,200,,0.365,RightResponse,correct,True,13.0
149,3,L,400,,0.255,LeftResponse,correct,True,10.0
150,3,L,50,,0.311,RightResponse,incorrect,True,1.0
151,3,R,100,,0.243,RightResponse,correct,True,16.0
152,3,L,50,,0.203,LeftResponse,correct,True,4.0
153,3,R,200,,0.246,RightResponse,correct,True,12.0
154,3,R,400,,0.238,LeftResponse,incorrect,True,9.0
155,3,L,200,,0.345,LeftResponse,correct,True,11.0
156,3,L,0,,0.264,LeftResponse,correct,True,22.0
157,3,L,400,,0.233,LeftResponse,correct,True,12.0
158,3,L,200,,0.202,RightResponse,incorrect,True,10.0
159,3,R,0,,0.363,RightResponse,correct,True,21.0
160,4,L,100,,0.248,LeftResponse,correct,True,15.0
161,4,R,100,,0.276,RightResponse,correct,True,14.0
162,4,L,200,,0.317,LeftResponse,correct,True,13.0
163,4,L,200,,0.371,RightResponse,incorrect,True,12.0
164,4,R,0,,0.204,RightResponse,correct,True,20.0
165,4,L,400,,0.258,LeftResponse,correct,True,11.0
166,4,L,0,,0.264,LeftResponse,correct,True,19.0
167,4,L,100,,0.398,LeftResponse,correct,False,13.0
168,4,R,200,,0.339,RightResponse,correct,True,15.0
169,4,L,50,,0.362,RightResponse,incorrect,True,3.0
170,4,R,0,,0.317,RightResponse,correct,True,18.0
171,4,R,400,,0.299,RightResponse,correct,True,10.0
172,4,L,50,,0.242,LeftResponse,correct,True,6.0
173,4,R,100,,0.398,RightResponse,correct,True,13.0
174,4,L,50,,0.348,LeftResponse,correct,True,5.0
175,4,R,50,,0.299,RightResponse,correct,True,4.0
176,4,L,400,,0.213,LeftResponse,correct,True,9.0
177,4,R,50,,0.217,RightResponse,correct,True,3.0
178,4,L,50,,0.379,LeftResponse,correct,True,2.0
179,4,R,100,,0.371,RightResponse,correct,True,12.0
180,4,L,0,,0.277,LeftResponse,correct,True,17.0
181,4,L,200,,0.349,LeftResponse,correct,True,14.0
182,4,L,0,,0.387,RightResponse,incorrect,True,16.0
183,4,R,0,,0.285,LeftResponse,incorrect,True,19.0
184,4,R,400,,0.386,RightResponse,correct,True,8.0
185,4,L,400,,0.269,LeftResponse,correct,True,7.0
186,4,R,50,,0.336,RightResponse,correct,True,1.0
187,4,R,400,,0.243,LeftResponse,incorrect,True,6.0
188,4,R,200,,0.393,LeftResponse,incorrect,True,13.0
189,4,L,200,,0.343,LeftResponse,correct,False,16.0
190,4,L,0,,0.353,LeftResponse,correct,True,22.0
191,4,L,100,,0.242,LeftResponse,correct,True,11.0
192,4,L,400,,0.343,RightResponse,incorrect,True,9.0
193,4,R,0,,0.365,LeftResponse,incorrect,True,21.0
194,4,R,200,,0.394,RightResponse,correct,True,16.0
195,4,R,400,,0.349,RightResponse,correct,True,12.0
196,4,L,100,,0.319,LeftResponse,correct,True,10.0
197,4,R,200,,0.359,RightResponse,correct,True,15.0
198,4,R,100,,0.302,RightResponse,correct,True,9.0
199,4,R,50,,0.39,LeftResponse,incorrect,True,1.0
200,5,L,400,,0.396,LeftResponse,correct,True,11.0
201,5,L,50,,0.358,RightResponse,incorrect,True,4.0
202,5,R,0,,0.269,RightResponse,correct,True,24.0
203,5,R,200,,0.363,RightResponse,correct,True,14.0
204,5,L,100,,0.232,LeftResponse,correct,False,8.0
205,5,R,200,,0.235,RightResponse,correct,True,13.0
206,5,L,0,,0.209,LeftResponse,correct,True,23.0
207,5,R,400,,0.259,RightResponse,correct,True,10.0
208,5,R,100,,0.391,RightResponse,correct,False,8.0
209,5,L,0,,0.34,LeftResponse,correct,True,22.0
210,5,R,50,,0.313,LeftResponse,incorrect,True,7.0
211,5,L,400,,0.329,LeftResponse,correct,True,9.0
212,5,L,400,,0.239,RightResponse,incorrect,True,8.0
213,5,R,400,,0.31,LeftResponse,incorrect,True,11.0
214,5,R,50,,0.23,RightResponse,correct,True,10.0
215,5,R,100,,0.296,RightResponse,correct,True,8.0
216,5,L,200,,0.23,RightResponse,incorrect,True,12.0
217,5,L,50,,0.348,LeftResponse,correct,True,9.0
218,5,R,50,,0.256,LeftResponse,incorrect,True,8.0
219,5,R,400,,0.377,RightResponse,correct,True,14.0
220,5,L,50,,0.34,RightResponse,incorrect,True,11.0
221,5,L,200,,0.303,RightResponse,incorrect,True,15.0
222,5,R,400,,0.326,RightResponse,correct,True,13.0
223,5,R,200,,0.395,RightResponse,correct,True,18.0
224,5,R,200,,0.208,RightResponse,correct,True,17.0
225,5,L,100,,0.341,LeftResponse,correct,True,7.0
226,5,L,200,,0.28,LeftResponse,correct,True,16.0
227,5,L,100,,0.236,LeftResponse,correct,True,6.0
228,5,R,100,,0.305,LeftResponse,incorrect,True,5.0
229,5,R,0,,0.311,RightResponse,correct,True,21.0
230,5,R,0,,0.231,RightResponse,correct,True,20.0
231,5,R,100,,0.241,LeftResponse,incorrect,True,8.0
232,5,L,100,,0.218,RightResponse,incorrect,True,11.0
233,5,L,0,,0.385,LeftResponse,correct,True,19.0
234,5,R,0,,0.374,LeftResponse,incorrect,True,18.0
235,5,R,50,,0.395,RightResponse,correct,True,14.0
236,5,L,400,,0.2,LeftResponse,correct,True,12.0
237,5,L,0,,0.296,LeftResponse,correct,True,21.0
238,5,L,200,,0.281,LeftResponse,correct,True,15.0
239,5,L,50,,0.385,LeftResponse,correct,True,13.0
