trialIndex,blockId,arrowDirection,latency,blankDuration,fixationDurationInSec,response,result,isSaccade,blankDurationInFrameCount
0,0,L,400,,0.313,invalid,invalid,True,110.0
1,0,L,100,,0.222,invalid,invalid,True,110.0
2,0,L,0,,0.359,LeftResponse,correct,True,110.0
3,0,R,0,,0.214,invalid,invalid,True,109.0
4,0,L,200,,0.364,LeftResponse,correct,True,110.0
5,0,R,200,,0.38,RightResponse,correct,False,109.0
6,0,R,50,,0.259,RightResponse,correct,True,110.0
7,0,R,100,,0.236,RightResponse,correct,False,110.0
8,0,R,200,,0.389,RightResponse,correct,True,109.0
9,0,L,0,,0.207,LeftResponse,correct,False,109.0
10,0,R,200,,0.378,RightResponse,correct,True,108.0
11,0,R,400,,0.229,invalid,invalid,True,110.0
12,0,L,100,,0.36,LeftResponse,correct,True,110.0
13,0,L,50,,0.224,invalid,invalid,True,109.0
14,0,R,100,,0.383,RightResponse,correct,True,109.0
15,0,L,50,,0.386,LeftResponse,correct,True,109.0
16,0,R,50,,0.308,RightResponse,correct,True,108.0
17,0,L,400,,0.21,LeftResponse,correct,True,110.0
18,0,R,100,,0.269,RightResponse,correct,True,108.0
19,0,R,100,,0.397,NoResponse,incorrect,True,107.0
20,0,L,100,,0.39,invalid,invalid,True,110.0
21,0,R,200,,0.378,RightResponse,correct,True,107.0
22,0,R,50,,0.323,invalid,invalid,True,107.0
23,0,R,50,,0.313,RightResponse,correct,False,107.0
24,0,L,0,,0.277,invalid,invalid,True,109.0
25,0,L,400,,0.204,LeftResponse,correct,True,109.0
26,0,L,50,,0.285,LeftResponse,correct,True,107.0
27,0,L,400,,0.27,LeftResponse,correct,True,108.0
28,0,R,0,,0.228,RightResponse,correct,True,109.0
29,0,L,100,,0.257,LeftResponse,correct,True,110.0
30,0,R,400,,0.206,invalid,invalid,True,107.0
31,0,R,400,,0.273,RightResponse,correct,True,107.0
32,0,R,0,,0.246,RightResponse,correct,True,108.0
33,0,L,50,,0.31,LeftResponse,correct,True,106.0
34,0,R,0,,0.348,RightResponse,correct,True,107.0
35,0,L,200,,0.366,LeftResponse,correct,True,106.0
36,0,L,200,,0.28,invalid,invalid,True,105.0
37,0,L,200,,0.321,LeftResponse,correct,True,105.0
38,0,L,0,,0.32,LeftResponse,correct,True,106.0
39,0,R,400,,0.245,invalid,invalid,True,106.0
40,1,L,200,,0.204,LeftResponse,correct,True,104.0
41,1,L,100,,0.233,invalid,invalid,True,109.0
42,1,R,400,,0.273,RightResponse,correct,True,106.0
43,1,L,400,,0.297,LeftResponse,correct,False,105.0
44,1,L,100,,0.392,invalid,invalid,True,109.0
45,1,R,50,,0.307,invalid,invalid,True,105.0
46,1,L,100,,0.218,LeftResponse,correct,True,109.0
47,1,L,0,,0.37,LeftResponse,correct,False,105.0
48,1,R,50,,0.335,RightResponse,correct,False,105.0
49,1,L,400,,0.256,LeftResponse,correct,True,105.0
50,1,R,0,,0.363,RightResponse,correct,True,105.0
51,1,L,50,,0.376,LeftResponse,correct,True,105.0
52,1,L,400,,0.247,LeftResponse,correct,True,104.0
53,1,R,0,,0.398,RightResponse,correct,True,104.0
54,1,R,400,,0.339,RightResponse,correct,True,103.0
55,1,R,50,,0.229,invalid,invalid,True,104.0
56,1,L,200,,0.336,LeftResponse,correct,True,103.0
57,1,R,50,,0.322,RightResponse,correct,False,104.0
58,1,R,0,,0.207,invalid,invalid,True,103.0
59,1,R,200,,0.222,RightResponse,correct,True,102.0
60,1,R,400,,0.365,RightResponse,correct,True,102.0
61,1,R,200,,0.292,invalid,invalid,True,101.0
62,1,L,100,,0.3,LeftResponse,correct,True,108.0
63,1,L,200,,0.301,LeftResponse,correct,False,101.0
64,1,R,200,,0.21,invalid,invalid,True,101.0
65,1,L,50,,0.287,LeftResponse,correct,True,104.0
66,1,L,0,,0.27,LeftResponse,correct,True,103.0
67,1,R,200,,0.206,RightResponse,correct,True,101.0
68,1,R,100,,0.239,RightResponse,correct,True,107.0
69,1,L,50,,0.284,invalid,invalid,True,103.0
70,1,R,100,,0.327,RightResponse,correct,True,106.0
71,1,R,400,,0.315,RightResponse,correct,True,101.0
72,1,R,100,,0.218,RightResponse,correct,True,105.0
73,1,L,400,,0.281,LeftResponse,correct,True,100.0
74,1,R,0,,0.338,RightResponse,correct,True,102.0
75,1,R,100,,0.368,RightResponse,correct,True,104.0
76,1,L,50,,0.358,invalid,invalid,True,103.0
77,1,L,0,,0.33,LeftResponse,correct,False,101.0
78,1,L,0,,0.344,LeftResponse,correct,False,101.0
79,1,L,200,,0.364,invalid,invalid,True,100.0
80,2,L,100,,0.245,invalid,invalid,True,103.0
81,2,L,100,,0.315,LeftResponse,correct,True,103.0
82,2,L,400,,0.38,LeftResponse,correct,True,99.0
83,2,L,400,,0.252,LeftResponse,correct,True,98.0
84,2,R,200,,0.393,,,,100.0
85,2,L,50,,0.286,,,,
86,2,L,200,,0.273,,,,
87,2,L,100,,0.342,,,,
88,2,R,0,,0.34,,,,
89,2,L,50,,0.365,,,,
90,2,R,200,,0.387,,,,
91,2,L,50,,0.252,,,,
92,2,R,100,,0.343,,,,
93,2,L,0,,0.357,,,,
94,2,L,0,,0.357,,,,
95,2,L,200,,0.227,,,,
96,2,R,50,,0.26,,,,
97,2,R,200,,0.296,,,,
98,2,R,0,,0.358,,,,
99,2,R,0,,0.271,,,,
100,2,L,200,,0.309,,,,
101,2,L,0,,0.33,,,,
102,2,R,50,,0.279,,,,
103,2,R,400,,0.31,,,,
104,2,L,200,,0.242,,,,
105,2,R,200,,0.368,,,,
106,2,R,100,,0.351,,,,
107,2,R,100,,0.305,,,,
108,2,L,400,,0.364,,,,
109,2,R,400,,0.389,,,,
110,2,R,50,,0.354,,,,
111,2,R,400,,0.366,,,,
112,2,R,50,,0.358,,,,
113,2,L,0,,0.205,,,,
114,2,R,0,,0.298,,,,
115,2,L,50,,0.237,,,,
116,2,R,400,,0.36,,,,
117,2,L,100,,0.372,,,,
118,2,R,100,,0.263,,,,
119,2,L,400,,0.244,,,,
120,3,R,100,,0.305,,,,
121,3,L,100,,0.237,,,,
122,3,R,400,,0.241,,,,
123,3,R,100,,0.337,,,,
124,3,L,0,,0.333,,,,
125,3,L,0,,0.316,,,,
126,3,R,50,,0.25,,,,
127,3,L,100,,0.345,,,,
128,3,R,400,,0.37,,,,
129,3,R,100,,0.21,,,,
130,3,L,400,,0.351,,,,
131,3,R,200,,0.348,,,,
132,3,R,200,,0.317,,,,
133,3,R,200,,0.264,,,,
134,3,L,50,,0.255,,,,
135,3,L,100,,0.239,,,,
136,3,L,400,,0.368,,,,
137,3,L,200,,0.211,,,,
138,3,L,200,,0.274,,,,
139,3,R,400,,0.279,,,,
140,3,R,400,,0.204,,,,
141,3,R,0,,0.229,,,,
142,3,R,200,,0.379,,,,
143,3,R,0,,0.348,,,,
144,3,L,400,,0.263,,,,
145,3,R,0,,0.338,,,,
146,3,R,50,,0.361,,,,
147,3,R,0,,0.306,,,,
148,3,L,50,,0.344,,,,
149,3,L,200,,0.278,,,,
150,3,L,50,,0.229,,,,
151,3,R,100,,0.31,,,,
152,3,L,0,,0.371,,,,
153,3,R,50,,0.222,,,,
154,3,L,100,,0.25,,,,
155,3,L,50,,0.234,,,,
156,3,R,50,,0.285,,,,
157,3,L,200,,0.201,,,,
158,3,L,400,,0.347,,,,
159,3,L,0,,0.303,,,,
160,4,R,100,,0.388,,,,
161,4,R,400,,0.389,,,,
162,4,R,0,,0.275,,,,
163,4,L,100,,0.218,,,,
164,4,R,0,,0.376,,,,
165,4,R,200,,0.243,,,,
166,4,L,200,,0.203,,,,
167,4,L,400,,0.37,,,,
168,4,R,50,,0.287,,,,
169,4,R,100,,0.319,,,,
170,4,R,400,,0.322,,,,
171,4,L,0,,0.368,,,,
172,4,R,100,,0.217,,,,
173,4,L,200,,0.292,,,,
174,4,R,200,,0.367,,,,
175,4,R,100,,0.225,,,,
176,4,L,200,,0.313,,,,
177,4,L,100,,0.254,,,,
178,4,L,400,,0.245,,,,
179,4,R,50,,0.229,,,,
180,4,L,0,,0.21,,,,
181,4,L,100,,0.327,,,,
182,4,R,0,,0.231,,,,
183,4,L,100,,0.352,,,,
184,4,L,50,,0.35,,,,
185,4,R,400,,0.276,,,,
186,4,R,400,,0.207,,,,
187,4,R,200,,0.318,,,,
188,4,L,200,,0.265,,,,
189,4,L,50,,0.258,,,,
190,4,R,50,,0.203,,,,
191,4,L,50,,0.315,,,,
192,4,R,0,,0.302,,,,
193,4,L,0,,0.249,,,,
194,4,L,0,,0.351,,,,
195,4,R,200,,0.287,,,,
196,4,L,50,,0.366,,,,
197,4,L,400,,0.368,,,,
198,4,R,50,,0.254,,,,
199,4,L,400,,0.308,,,,
200,5,L,100,,0.366,,,,
201,5,L,50,,0.272,,,,
202,5,R,400,,0.327,,,,
203,5,L,100,,0.347,,,,
204,5,L,0,,0.389,,,,
205,5,R,50,,0.363,,,,
206,5,L,400,,0.266,,,,
207,5,L,400,,0.252,,,,
208,5,L,200,,0.295,,,,
209,5,R,0,,0.305,,,,
210,5,R,0,,0.339,,,,
211,5,R,0,,0.386,,,,
212,5,L,0,,0.303,,,,
213,5,L,200,,0.366,,,,
214,5,R,100,,0.223,,,,
215,5,R,200,,0.304,,,,
216,5,R,100,,0.262,,,,
217,5,L,400,,0.29,,,,
218,5,L,50,,0.348,,,,
219,5,L,400,,0.302,,,,
220,5,L,0,,0.276,,,,
221,5,R,400,,0.397,,,,
222,5,R,50,,0.349,,,,
223,5,R,100,,0.239,,,,
224,5,R,0,,0.206,,,,
225,5,L,50,,0.254,,,,
226,5,L,200,,0.217,,,,
227,5,R,200,,0.331,,,,
228,5,R,100,,0.291,,,,
229,5,L,100,,0.216,,,,
230,5,L,50,,0.365,,,,
231,5,R,400,,0.208,,,,
232,5,R,400,,0.22,,,,
233,5,L,200,,0.355,,,,
234,5,R,200,,0.362,,,,
235,5,L,100,,0.4,,,,
236,5,R,50,,0.251,,,,
237,5,L,0,,0.381,,,,
238,5,R,50,,0.274,,,,
239,5,R,200,,0.331,,,,
