trialIndex,blockId,arrowDirection,latency,blankDuration,fixationDurationInSec,response,result,isSaccade,blankDurationInFrameCount
0,0,R,100,,0.37,invalid,invalid,True,4.0
1,0,L,50,,0.276,RightResponse,incorrect,True,4.0
2,0,L,0,,0.329,RightResponse,incorrect,False,4.0
3,0,L,200,,0.304,invalid,invalid,True,4.0
4,0,L,200,,0.291,RightResponse,incorrect,False,4.0
5,0,R,50,,0.39,RightResponse,correct,False,7.0
6,0,R,200,,0.39,RightResponse,correct,True,4.0
7,0,L,0,,0.306,invalid,invalid,True,4.0
8,0,L,100,,0.399,RightResponse,incorrect,True,4.0
9,0,R,400,,0.22,LeftResponse,incorrect,False,4.0
10,0,L,50,,0.352,RightResponse,incorrect,True,7.0
11,0,R,100,,0.348,invalid,invalid,True,7.0
12,0,L,0,,0.247,RightResponse,incorrect,True,4.0
13,0,R,100,,0.341,LeftResponse,incorrect,True,7.0
14,0,R,100,,0.336,RightResponse,correct,True,10.0
15,0,L,400,,0.304,LeftResponse,correct,True,4.0
16,0,R,400,,0.361,LeftResponse,incorrect,True,3.0
17,0,R,400,,0.202,RightResponse,correct,True,6.0
18,0,R,0,,0.306,LeftResponse,incorrect,True,7.0
19,0,L,200,,0.266,RightResponse,incorrect,True,3.0
20,0,L,400,,0.241,NoResponse,incorrect,False,5.0
21,0,R,50,,0.2,RightResponse,correct,False,10.0
22,0,R,200,,0.397,invalid,invalid,True,6.0
23,0,L,100,,0.284,RightResponse,incorrect,True,9.0
24,0,R,50,,0.36,RightResponse,correct,True,10.0
25,0,R,200,,0.266,invalid,invalid,True,6.0
26,0,L,400,,0.324,LeftResponse,correct,True,5.0
27,0,R,200,,0.358,LeftResponse,incorrect,True,6.0
28,0,R,0,,0.307,LeftResponse,incorrect,False,10.0
29,0,R,0,,0.269,LeftResponse,incorrect,False,10.0
30,0,R,0,,0.394,invalid,invalid,True,10.0
31,0,R,50,,0.341,RightResponse,correct,True,9.0
32,0,L,400,,0.289,RightResponse,incorrect,True,4.0
33,0,L,200,,0.288,RightResponse,incorrect,False,9.0
34,0,L,100,,0.3,LeftResponse,correct,True,12.0
35,0,L,100,,0.259,RightResponse,incorrect,False,11.0
36,0,L,50,,0.202,LeftResponse,correct,True,8.0
37,0,L,50,,0.226,LeftResponse,correct,True,7.0
38,0,L,0,,0.357,LeftResponse,correct,True,10.0
39,0,R,400,,0.332,LeftResponse,incorrect,False,7.0
40,1,R,50,,0.267,NoResponse,incorrect,True,6.0
41,1,R,200,,0.261,LeftResponse,incorrect,True,9.0
42,1,L,50,,0.204,RightResponse,incorrect,False,9.0
43,1,L,50,,0.297,LeftResponse,correct,True,9.0
44,1,L,0,,0.211,LeftResponse,correct,True,9.0
45,1,L,200,,0.345,LeftResponse,correct,True,12.0
46,1,L,200,,0.265,LeftResponse,correct,True,11.0
47,1,L,200,,0.239,LeftResponse,correct,True,10.0
48,1,L,50,,0.397,LeftResponse,correct,True,8.0
49,1,L,400,,0.378,LeftResponse,correct,True,7.0
50,1,R,400,,0.346,LeftResponse,incorrect,True,6.0
51,1,R,0,,0.275,RightResponse,correct,True,8.0
52,1,L,200,,0.201,RightResponse,incorrect,True,9.0
53,1,R,100,,0.292,LeftResponse,incorrect,True,11.0
54,1,R,400,,0.36,LeftResponse,incorrect,True,9.0
55,1,R,0,,0.25,LeftResponse,incorrect,True,7.0
56,1,R,100,,0.357,RightResponse,correct,True,14.0
57,1,L,0,,0.248,RightResponse,incorrect,True,10.0
58,1,R,50,,0.287,LeftResponse,incorrect,True,7.0
59,1,L,0,,0.321,LeftResponse,correct,True,13.0
60,1,R,50,,0.336,LeftResponse,incorrect,True,10.0
61,1,L,400,,0.272,RightResponse,incorrect,True,12.0
62,1,L,100,,0.239,LeftResponse,correct,True,13.0
63,1,L,400,,0.357,LeftResponse,correct,True,15.0
64,1,R,0,,0.365,RightResponse,correct,True,12.0
65,1,R,100,,0.307,LeftResponse,incorrect,True,12.0
66,1,L,0,,0.262,RightResponse,incorrect,True,11.0
67,1,R,400,,0.314,LeftResponse,incorrect,True,14.0
68,1,L,50,,0.358,LeftResponse,correct,False,13.0
69,1,R,0,,0.216,LeftResponse,incorrect,True,14.0
70,1,L,100,,0.292,LeftResponse,correct,True,15.0
71,1,L,400,,0.273,LeftResponse,correct,True,17.0
72,1,R,400,,0.258,invalid,invalid,True,16.0
73,1,L,100,,0.225,LeftResponse,correct,True,14.0
74,1,R,200,,0.337,LeftResponse,incorrect,True,12.0
75,1,R,50,,0.342,RightResponse,correct,True,13.0
76,1,R,200,,0.389,RightResponse,correct,True,15.0
77,1,R,200,,0.202,LeftResponse,incorrect,True,14.0
78,1,L,100,,0.34,LeftResponse,correct,True,13.0
79,1,R,100,,0.307,LeftResponse,incorrect,True,12.0
80,2,L,50,,0.397,RightResponse,incorrect,True,12.0
81,2,L,100,,0.218,invalid,invalid,True,15.0
82,2,L,100,,0.326,RightResponse,incorrect,True,15.0
83,2,R,400,,0.38,LeftResponse,incorrect,True,16.0
84,2,L,50,,0.288,LeftResponse,correct,True,15.0
85,2,L,50,,0.341,LeftResponse,correct,True,14.0
86,2,L,0,,0.394,LeftResponse,correct,False,17.0
87,2,R,50,,0.347,LeftResponse,incorrect,True,13.0
88,2,R,0,,0.362,RightResponse,correct,True,17.0
89,2,R,100,,0.248,RightResponse,correct,True,18.0
90,2,L,200,,0.253,RightResponse,incorrect,True,17.0
91,2,L,400,,0.399,LeftResponse,correct,True,19.0
92,2,L,0,,0.327,RightResponse,incorrect,True,16.0
93,2,L,400,,0.374,LeftResponse,correct,True,18.0
94,2,L,100,,0.309,LeftResponse,correct,True,17.0
95,2,R,0,,0.209,LeftResponse,incorrect,True,19.0
96,2,L,0,,0.308,RightResponse,incorrect,True,22.0
97,2,R,100,,0.285,LeftResponse,incorrect,True,16.0
98,2,L,200,,0.322,LeftResponse,correct,True,20.0
99,2,L,200,,0.257,LeftResponse,correct,True,19.0
100,2,L,400,,0.26,LeftResponse,correct,True,17.0
101,2,R,200,,0.338,RightResponse,correct,True,18.0
102,2,L,400,,0.278,RightResponse,incorrect,True,16.0
103,2,R,200,,0.372,LeftResponse,incorrect,True,17.0
104,2,R,50,,0.387,RightResponse,correct,True,16.0
105,2,R,50,,0.374,RightResponse,correct,True,15.0
106,2,R,0,,0.231,LeftResponse,incorrect,True,25.0
107,2,R,50,,0.209,RightResponse,correct,False,14.0
108,2,L,50,,0.299,LeftResponse,correct,True,14.0
109,2,R,100,,0.388,RightResponse,correct,True,19.0
110,2,L,100,,0.304,LeftResponse,correct,True,18.0
111,2,R,200,,0.323,LeftResponse,incorrect,True,20.0
112,2,L,200,,0.2,LeftResponse,correct,True,23.0
113,2,L,0,,0.204,LeftResponse,correct,True,28.0
114,2,R,400,,0.219,LeftResponse,incorrect,True,19.0
115,2,R,0,,0.308,RightResponse,correct,True,27.0
116,2,R,200,,0.257,RightResponse,correct,True,22.0
117,2,R,400,,0.308,RightResponse,correct,True,22.0
118,2,R,100,,0.381,RightResponse,correct,True,17.0
119,2,R,400,,0.368,RightResponse,correct,True,21.0
120,3,L,50,,0.277,LeftResponse,correct,True,13.0
121,3,L,100,,0.396,LeftResponse,correct,True,16.0
122,3,R,0,,0.312,LeftResponse,incorrect,True,26.0
123,3,L,100,,0.208,RightResponse,incorrect,True,15.0
124,3,R,100,,0.331,LeftResponse,incorrect,True,18.0
125,3,R,0,,0.304,RightResponse,correct,True,29.0
126,3,R,200,,0.392,LeftResponse,incorrect,True,21.0
127,3,R,50,,0.332,RightResponse,correct,True,12.0
128,3,L,50,,0.294,RightResponse,incorrect,True,11.0
129,3,L,0,,0.379,LeftResponse,correct,True,28.0
130,3,L,0,,0.215,LeftResponse,correct,True,27.0
131,3,L,0,,0.224,LeftResponse,correct,True,26.0
132,3,R,200,,0.394,LeftResponse,incorrect,True,24.0
133,3,R,50,,0.257,invalid,invalid,True,14.0
134,3,R,50,,0.37,RightResponse,correct,True,14.0
135,3,R,0,,0.375,RightResponse,correct,True,25.0
136,3,L,400,,0.363,RightResponse,incorrect,True,20.0
137,3,R,400,,0.247,LeftResponse,incorrect,True,23.0
138,3,L,0,,0.357,RightResponse,incorrect,True,24.0
139,3,L,400,,0.203,LeftResponse,correct,True,26.0
140,3,R,0,,0.29,RightResponse,correct,True,27.0
141,3,R,400,,0.35,LeftResponse,incorrect,True,25.0
142,3,L,200,,0.248,RightResponse,incorrect,True,27.0
143,3,R,200,,0.24,LeftResponse,incorrect,True,30.0
144,3,L,100,,0.245,LeftResponse,correct,True,21.0
145,3,L,50,,0.32,LeftResponse,correct,True,13.0
146,3,R,100,,0.265,LeftResponse,incorrect,True,20.0
147,3,L,100,,0.271,LeftResponse,correct,True,23.0
148,3,R,400,,0.306,RightResponse,correct,True,28.0
149,3,R,400,,0.222,RightResponse,correct,True,27.0
150,3,L,200,,0.393,LeftResponse,correct,True,33.0
151,3,R,100,,0.374,LeftResponse,incorrect,True,22.0
152,3,L,200,,0.301,LeftResponse,correct,True,32.0
153,3,R,100,,0.238,RightResponse,correct,True,25.0
154,3,L,200,,0.26,LeftResponse,correct,True,31.0
155,3,L,400,,0.355,LeftResponse,correct,True,26.0
156,3,L,400,,0.392,LeftResponse,correct,True,25.0
157,3,L,50,,0.275,LeftResponse,correct,True,12.0
158,3,R,50,,0.239,LeftResponse,incorrect,True,11.0
159,3,R,200,,0.339,RightResponse,correct,True,30.0
160,4,L,400,,0.247,invalid,invalid,True,24.0
161,4,L,100,,0.372,RightResponse,incorrect,True,24.0
162,4,L,0,,0.31,LeftResponse,correct,True,26.0
163,4,L,50,,0.392,LeftResponse,correct,True,14.0
164,4,R,100,,0.391,RightResponse,correct,True,27.0
165,4,L,100,,0.265,LeftResponse,correct,True,26.0
166,4,R,0,,0.243,RightResponse,correct,True,25.0
167,4,R,200,,0.271,RightResponse,correct,True,29.0
168,4,R,50,,0.381,RightResponse,correct,True,13.0
169,4,L,200,,0.365,RightResponse,incorrect,True,28.0
170,4,L,200,,0.362,LeftResponse,correct,True,31.0
171,4,R,200,,0.314,RightResponse,correct,True,30.0
172,4,R,0,,0.348,LeftResponse,incorrect,True,24.0
173,4,L,200,,0.394,LeftResponse,correct,True,29.0
174,4,R,0,,0.222,RightResponse,correct,True,27.0
175,4,L,100,,0.375,LeftResponse,correct,True,25.0
176,4,R,100,,0.364,RightResponse,correct,True,24.0
177,4,L,0,,0.286,LeftResponse,correct,True,26.0
178,4,R,50,,0.306,LeftResponse,incorrect,True,12.0
179,4,R,400,,0.297,RightResponse,correct,True,24.0
180,4,L,0,,0.289,RightResponse,incorrect,True,25.0
181,4,L,0,,0.306,LeftResponse,correct,True,28.0
182,4,L,50,,0.312,LeftResponse,correct,True,15.0
183,4,R,200,,0.356,RightResponse,correct,True,28.0
184,4,R,50,,0.379,LeftResponse,incorrect,True,14.0
185,4,R,400,,0.309,RightResponse,correct,True,23.0
186,4,R,100,,0.369,RightResponse,correct,True,23.0
187,4,R,50,,0.358,RightResponse,correct,True,17.0
188,4,L,400,,0.339,RightResponse,incorrect,True,22.0
189,4,L,100,,0.39,LeftResponse,correct,True,22.0
190,4,R,400,,0.357,LeftResponse,incorrect,True,25.0
191,4,L,50,,0.208,RightResponse,incorrect,True,16.0
192,4,L,400,,0.324,LeftResponse,correct,True,28.0
193,4,R,100,,0.274,LeftResponse,incorrect,True,21.0
194,4,R,200,,0.226,RightResponse,correct,True,27.0
195,4,L,400,,0.278,invalid,invalid,True,27.0
196,4,L,200,,0.335,LeftResponse,correct,True,26.0
197,4,R,400,,0.357,LeftResponse,incorrect,True,27.0
198,4,L,50,,0.225,LeftResponse,correct,False,19.0
199,4,R,0,,0.386,invalid,invalid,True,27.0
200,5,R,0,,0.344,LeftResponse,incorrect,True,27.0
201,5,L,200,,0.295,LeftResponse,correct,True,25.0
202,5,R,50,,0.276,invalid,invalid,True,19.0
203,5,L,400,,0.328,LeftResponse,correct,True,30.0
204,5,L,400,,0.265,LeftResponse,correct,True,29.0
205,5,L,400,,0.325,invalid,invalid,True,28.0
206,5,R,100,,0.202,LeftResponse,incorrect,True,24.0
207,5,R,0,,0.368,invalid,invalid,True,30.0
208,5,L,200,,0.356,LeftResponse,correct,True,24.0
209,5,R,400,,0.392,RightResponse,correct,True,28.0
210,5,L,0,,0.375,RightResponse,incorrect,True,30.0
211,5,L,200,,0.394,LeftResponse,correct,True,23.0
212,5,R,50,,0.269,LeftResponse,incorrect,True,19.0
213,5,L,0,,0.394,RightResponse,incorrect,True,33.0
214,5,L,50,,0.283,LeftResponse,correct,True,22.0
215,5,L,0,,0.284,LeftResponse,correct,False,36.0
216,5,R,400,,0.374,RightResponse,correct,True,27.0
217,5,L,50,,0.324,LeftResponse,correct,True,21.0
218,5,L,400,,0.353,LeftResponse,correct,False,26.0
219,5,R,0,,0.389,LeftResponse,incorrect,True,36.0
220,5,R,100,,0.213,LeftResponse,incorrect,True,27.0
221,5,L,100,,0.383,LeftResponse,correct,True,30.0
222,5,L,50,,0.29,invalid,invalid,True,20.0
223,5,R,400,,0.366,RightResponse,correct,True,26.0
224,5,R,200,,0.321,RightResponse,correct,True,22.0
225,5,L,100,,0.239,LeftResponse,correct,True,29.0
226,5,R,50,,0.347,LeftResponse,incorrect,True,20.0
227,5,R,0,,0.208,RightResponse,correct,True,39.0
228,5,R,200,,0.316,RightResponse,correct,False,21.0
229,5,L,100,,0.39,LeftResponse,correct,True,28.0
230,5,R,400,,0.305,LeftResponse,incorrect,True,25.0
231,5,L,100,,0.207,LeftResponse,correct,True,27.0
232,5,R,200,,0.318,LeftResponse,incorrect,True,21.0
233,5,R,200,,0.371,LeftResponse,incorrect,True,24.0
234,5,L,0,,0.366,LeftResponse,correct,True,38.0
235,5,L,50,,0.276,LeftResponse,correct,True,23.0
236,5,R,100,,0.217,invalid,invalid,True,26.0
237,5,L,200,,0.263,LeftResponse,correct,True,27.0
238,5,R,100,,0.212,LeftResponse,incorrect,True,26.0
239,5,R,50,,0.392,RightResponse,correct,True,22.0
